# ISAACJ_mod
# energy
# ESO VLT ISAAC J (ESO web pages - http://www.eso.org/sci/facilities/paranal/decommissioned/isaac/inst/isaac_img.html) - 2365 righe eliminate agli estremi
# lambda	transmission
       10700.000     0.014500000
       10701.000     0.014000000
       10702.000    0.0096000000
       10703.000    0.0041000000
       10704.000   0.00050000000
       10705.000    0.0014000000
       10707.000    0.0054000000
       10708.000     0.010000000
       10709.000     0.013000000
       10710.000     0.013000000
       10711.000     0.011300000
       10712.000    0.0097000000
       10714.000    0.0084000000
       10715.000    0.0074000000
       10716.000    0.0057000000
       10717.000    0.0034000000
       10718.000    0.0021000000
       10719.000    0.0030000000
       10720.000    0.0069000000
       10722.000     0.012300000
       10723.000     0.016300000
       10724.000     0.016900000
       10725.000     0.013900000
       10726.000    0.0088000000
       10727.000    0.0035000000
       10728.000   0.00030000000
       10730.000   0.00050000000
       10731.000    0.0031000000
       10732.000    0.0058000000
       10733.000    0.0062000000
       10734.000    0.0034000000
       10735.000   -0.0021000000
       10737.000   -0.0079000000
       10738.000    -0.011200000
       10739.000    -0.010000000
       10740.000   -0.0050000000
       10741.000    0.0018000000
       10742.000    0.0077000000
       10743.000     0.010700000
       10745.000    0.0099000000
       10746.000    0.0066000000
       10747.000    0.0032000000
       10748.000    0.0020000000
       10749.000    0.0038000000
       10750.000    0.0073000000
       10752.000     0.010000000
       10753.000     0.010300000
       10754.000    0.0092000000
       10755.000    0.0086000000
       10756.000     0.011600000
       10757.000     0.017300000
       10758.000     0.022300000
       10760.000     0.024000000
       10761.000     0.021100000
       10762.000     0.015900000
       10763.000     0.012400000
       10764.000     0.011300000
       10765.000     0.011500000
       10767.000     0.011300000
       10768.000    0.0089000000
       10769.000    0.0056000000
       10770.000    0.0036000000
       10771.000    0.0031000000
       10772.000    0.0041000000
       10774.000    0.0061000000
       10775.000    0.0085000000
       10776.000     0.011200000
       10777.000     0.013700000
       10778.000     0.014800000
       10779.000     0.014700000
       10781.000     0.014500000
       10782.000     0.015800000
       10783.000     0.019500000
       10784.000     0.025000000
       10785.000     0.030300000
       10786.000     0.033500000
       10787.000     0.033900000
       10789.000     0.031600000
       10790.000     0.027500000
       10791.000     0.022600000
       10792.000     0.017300000
       10793.000     0.013300000
       10794.000     0.011800000
       10796.000     0.011700000
       10797.000     0.011500000
       10798.000     0.010900000
       10799.000     0.010500000
       10800.000     0.011800000
       10801.000     0.015600000
       10803.000     0.020100000
       10804.000     0.023100000
       10805.000     0.024000000
       10806.000     0.023200000
       10807.000     0.022700000
       10808.000     0.023600000
       10810.000     0.024600000
       10811.000     0.024500000
       10812.000     0.023700000
       10813.000     0.022700000
       10814.000     0.023000000
       10815.000     0.024500000
       10817.000     0.025200000
       10818.000     0.024300000
       10819.000     0.022600000
       10820.000     0.020900000
       10821.000     0.020600000
       10823.000     0.022200000
       10824.000     0.024800000
       10825.000     0.027800000
       10826.000     0.030500000
       10827.000     0.031700000
       10828.000     0.030900000
       10830.000     0.028600000
       10831.000     0.025900000
       10832.000     0.023500000
       10833.000     0.021800000
       10834.000     0.019900000
       10835.000     0.017500000
       10837.000     0.015800000
       10838.000     0.016100000
       10839.000     0.019500000
       10840.000     0.025200000
       10841.000     0.030000000
       10842.000     0.032300000
       10844.000     0.033800000
       10845.000     0.036300000
       10846.000     0.041100000
       10847.000     0.046700000
       10848.000     0.049200000
       10850.000     0.047900000
       10851.000     0.044800000
       10852.000     0.042500000
       10853.000     0.043200000
       10854.000     0.045900000
       10855.000     0.047800000
       10857.000     0.049000000
       10858.000     0.051400000
       10859.000     0.055200000
       10860.000     0.060100000
       10861.000     0.063200000
       10862.000     0.062000000
       10864.000     0.058100000
       10865.000     0.053900000
       10866.000     0.051300000
       10867.000     0.051100000
       10868.000     0.052000000
       10870.000     0.052700000
       10871.000     0.054300000
       10872.000     0.057600000
       10873.000     0.062300000
       10874.000     0.067400000
       10875.000     0.070300000
       10877.000     0.070400000
       10878.000     0.068600000
       10879.000     0.066700000
       10880.000     0.065800000
       10881.000     0.066900000
       10883.000     0.069900000
       10884.000     0.073700000
       10885.000     0.076900000
       10886.000     0.078500000
       10887.000     0.078600000
       10889.000     0.077500000
       10890.000     0.076100000
       10891.000     0.074900000
       10892.000     0.074200000
       10893.000     0.074500000
       10894.000     0.075900000
       10896.000     0.079000000
       10897.000     0.083600000
       10898.000     0.086800000
       10899.000     0.086600000
       10900.000     0.083400000
       10902.000     0.079500000
       10903.000     0.077900000
       10904.000     0.080200000
       10905.000     0.085100000
       10906.000     0.090900000
       10908.000     0.095900000
       10909.000      0.10010000
       10910.000      0.10510000
       10911.000      0.11110000
       10912.000      0.11640000
       10913.000      0.12010000
       10915.000      0.12170000
       10916.000      0.12200000
       10917.000      0.12240000
       10918.000      0.12370000
       10919.000      0.12610000
       10921.000      0.12960000
       10922.000      0.13350000
       10923.000      0.13630000
       10924.000      0.13680000
       10925.000      0.13520000
       10927.000      0.13250000
       10928.000      0.13080000
       10929.000      0.13160000
       10930.000      0.13410000
       10931.000      0.13680000
       10933.000      0.13960000
       10934.000      0.14230000
       10935.000      0.14530000
       10936.000      0.14820000
       10937.000      0.14950000
       10939.000      0.14890000
       10940.000      0.14840000
       10941.000      0.14990000
       10942.000      0.15450000
       10943.000      0.16150000
       10945.000      0.16750000
       10946.000      0.17230000
       10947.000      0.17740000
       10948.000      0.18420000
       10949.000      0.19330000
       10951.000      0.20250000
       10952.000      0.20820000
       10953.000      0.20930000
       10954.000      0.20670000
       10955.000      0.20250000
       10957.000      0.19900000
       10958.000      0.19820000
       10959.000      0.20050000
       10960.000      0.20490000
       10961.000      0.20990000
       10963.000      0.21240000
       10964.000      0.21150000
       10965.000      0.20930000
       10966.000      0.20880000
       10967.000      0.21210000
       10969.000      0.21930000
       10970.000      0.22750000
       10971.000      0.23440000
       10972.000      0.23980000
       10973.000      0.24390000
       10975.000      0.24660000
       10976.000      0.24820000
       10977.000      0.24900000
       10978.000      0.25060000
       10979.000      0.25550000
       10981.000      0.26300000
       10982.000      0.26990000
       10983.000      0.27350000
       10984.000      0.27240000
       10985.000      0.26920000
       10987.000      0.26840000
       10988.000      0.26980000
       10989.000      0.27150000
       10990.000      0.27310000
       10991.000      0.27500000
       10993.000      0.28020000
       10994.000      0.29040000
       10995.000      0.30160000
       10996.000      0.30960000
       10997.000      0.31370000
       10999.000      0.31510000
       11000.000      0.31790000
       11001.000      0.32370000
       11002.000      0.32780000
       11004.000      0.32770000
       11005.000      0.32470000
       11006.000      0.32160000
       11007.000      0.32170000
       11008.000      0.32540000
       11010.000      0.32900000
       11011.000      0.33140000
       11012.000      0.33420000
       11013.000      0.33900000
       11014.000      0.34700000
       11016.000      0.35670000
       11017.000      0.36450000
       11018.000      0.36970000
       11019.000      0.37340000
       11020.000      0.37570000
       11022.000      0.37680000
       11023.000      0.37780000
       11024.000      0.37960000
       11025.000      0.38340000
       11027.000      0.38950000
       11028.000      0.39440000
       11029.000      0.39570000
       11030.000      0.39500000
       11031.000      0.39460000
       11033.000      0.39690000
       11034.000      0.40200000
       11035.000      0.40580000
       11036.000      0.40670000
       11038.000      0.40710000
       11039.000      0.40940000
       11040.000      0.41500000
       11041.000      0.42260000
       11042.000      0.42730000
       11044.000      0.42820000
       11045.000      0.42820000
       11046.000      0.42900000
       11047.000      0.43110000
       11049.000      0.43380000
       11050.000      0.43490000
       11051.000      0.43680000
       11052.000      0.44260000
       11053.000      0.45120000
       11055.000      0.45960000
       11056.000      0.46450000
       11057.000      0.46390000
       11058.000      0.46050000
       11060.000      0.45790000
       11061.000      0.45620000
       11062.000      0.45530000
       11063.000      0.45580000
       11064.000      0.45840000
       11066.000      0.46470000
       11067.000      0.47430000
       11068.000      0.48380000
       11069.000      0.49070000
       11071.000      0.49570000
       11072.000      0.49890000
       11073.000      0.50030000
       11074.000      0.49990000
       11075.000      0.49690000
       11077.000      0.49310000
       11078.000      0.49230000
       11079.000      0.49470000
       11080.000      0.49820000
       11082.000      0.50020000
       11083.000      0.49870000
       11084.000      0.49620000
       11085.000      0.49690000
       11086.000      0.50070000
       11088.000      0.50550000
       11089.000      0.50980000
       11090.000      0.51180000
       11091.000      0.51310000
       11093.000      0.51560000
       11094.000      0.51720000
       11095.000      0.51650000
       11096.000      0.51430000
       11098.000      0.51230000
       11099.000      0.51290000
       11100.000      0.51680000
       11101.000      0.52150000
       11102.000      0.52490000
       11104.000      0.52750000
       11105.000      0.52950000
       11106.000      0.53110000
       11107.000      0.53220000
       11109.000      0.53130000
       11110.000      0.52960000
       11111.000      0.52990000
       11112.000      0.53170000
       11114.000      0.53270000
       11115.000      0.53150000
       11116.000      0.52830000
       11117.000      0.52600000
       11119.000      0.52810000
       11120.000      0.53300000
       11121.000      0.53750000
       11122.000      0.54060000
       11123.000      0.54250000
       11125.000      0.54540000
       11126.000      0.55060000
       11127.000      0.55430000
       11128.000      0.55330000
       11130.000      0.54940000
       11131.000      0.54530000
       11132.000      0.54480000
       11133.000      0.54920000
       11135.000      0.55480000
       11136.000      0.55830000
       11137.000      0.55990000
       11138.000      0.55990000
       11140.000      0.55950000
       11141.000      0.55890000
       11142.000      0.55740000
       11143.000      0.55580000
       11145.000      0.55610000
       11146.000      0.55780000
       11147.000      0.55860000
       11148.000      0.55850000
       11150.000      0.55840000
       11151.000      0.55940000
       11152.000      0.56310000
       11153.000      0.56610000
       11154.000      0.56470000
       11156.000      0.56080000
       11157.000      0.55760000
       11158.000      0.55800000
       11159.000      0.56330000
       11161.000      0.56830000
       11162.000      0.56840000
       11163.000      0.56550000
       11164.000      0.56210000
       11166.000      0.55930000
       11167.000      0.55750000
       11168.000      0.55390000
       11169.000      0.54930000
       11171.000      0.54990000
       11172.000      0.55760000
       11173.000      0.56960000
       11174.000      0.58070000
       11176.000      0.58450000
       11177.000      0.58210000
       11178.000      0.58100000
       11179.000      0.58300000
       11181.000      0.58490000
       11182.000      0.58360000
       11183.000      0.57620000
       11184.000      0.56690000
       11186.000      0.56290000
       11187.000      0.56410000
       11188.000      0.56750000
       11189.000      0.57050000
       11191.000      0.57150000
       11192.000      0.57330000
       11193.000      0.57880000
       11194.000      0.58430000
       11196.000      0.58700000
       11197.000      0.58740000
       11198.000      0.58710000
       11199.000      0.58890000
       11201.000      0.59290000
       11202.000      0.59420000
       11203.000      0.59060000
       11204.000      0.58520000
       11206.000      0.58060000
       11207.000      0.57850000
       11208.000      0.57860000
       11210.000      0.57850000
       11211.000      0.57870000
       11212.000      0.58260000
       11213.000      0.58930000
       11215.000      0.59560000
       11216.000      0.59830000
       11217.000      0.59530000
       11218.000      0.59020000
       11220.000      0.58900000
       11221.000      0.59130000
       11222.000      0.59420000
       11223.000      0.59560000
       11225.000      0.59390000
       11226.000      0.59160000
       11227.000      0.59110000
       11228.000      0.59010000
       11230.000      0.58680000
       11231.000      0.58300000
       11232.000      0.58030000
       11233.000      0.58070000
       11235.000      0.58410000
       11236.000      0.58650000
       11237.000      0.58620000
       11238.000      0.58580000
       11240.000      0.58610000
       11241.000      0.58590000
       11242.000      0.58390000
       11244.000      0.57810000
       11245.000      0.57120000
       11246.000      0.56870000
       11247.000      0.57070000
       11249.000      0.57380000
       11250.000      0.57540000
       11251.000      0.57410000
       11252.000      0.57370000
       11254.000      0.57910000
       11255.000      0.58740000
       11256.000      0.59330000
       11257.000      0.59400000
       11259.000      0.58950000
       11260.000      0.58530000
       11261.000      0.58670000
       11263.000      0.59110000
       11264.000      0.59490000
       11265.000      0.59750000
       11266.000      0.59860000
       11268.000      0.60030000
       11269.000      0.60250000
       11270.000      0.60090000
       11271.000      0.59450000
       11273.000      0.58710000
       11274.000      0.58190000
       11275.000      0.58070000
       11276.000      0.58260000
       11278.000      0.58380000
       11279.000      0.58390000
       11280.000      0.58600000
       11282.000      0.59010000
       11283.000      0.59480000
       11284.000      0.59790000
       11285.000      0.59740000
       11287.000      0.59590000
       11288.000      0.59740000
       11289.000      0.60030000
       11291.000      0.60150000
       11292.000      0.59960000
       11293.000      0.59480000
       11294.000      0.59100000
       11296.000      0.59170000
       11297.000      0.59380000
       11298.000      0.59440000
       11299.000      0.59330000
       11301.000      0.59170000
       11302.000      0.59220000
       11303.000      0.59590000
       11305.000      0.59930000
       11306.000      0.60080000
       11307.000      0.60240000
       11308.000      0.60460000
       11310.000      0.60680000
       11311.000      0.60750000
       11312.000      0.60420000
       11313.000      0.59860000
       11315.000      0.59570000
       11316.000      0.59650000
       11317.000      0.59890000
       11319.000      0.60030000
       11320.000      0.59850000
       11321.000      0.59620000
       11322.000      0.59810000
       11324.000      0.60310000
       11325.000      0.60800000
       11326.000      0.61070000
       11328.000      0.60980000
       11329.000      0.60810000
       11330.000      0.60840000
       11331.000      0.60860000
       11333.000      0.60640000
       11334.000      0.60300000
       11335.000      0.59980000
       11337.000      0.59870000
       11338.000      0.60030000
       11339.000      0.60220000
       11340.000      0.60360000
       11342.000      0.60720000
       11343.000      0.61350000
       11344.000      0.62050000
       11346.000      0.62510000
       11347.000      0.62320000
       11348.000      0.61680000
       11349.000      0.61220000
       11351.000      0.61080000
       11352.000      0.61010000
       11353.000      0.60820000
       11355.000      0.60350000
       11356.000      0.59950000
       11357.000      0.60100000
       11358.000      0.60610000
       11360.000      0.61060000
       11361.000      0.61230000
       11362.000      0.61030000
       11364.000      0.60870000
       11365.000      0.61120000
       11366.000      0.61440000
       11368.000      0.61490000
       11369.000      0.61280000
       11370.000      0.60890000
       11371.000      0.60620000
       11373.000      0.60590000
       11374.000      0.60450000
       11375.000      0.60170000
       11377.000      0.60090000
       11378.000      0.60410000
       11379.000      0.61140000
       11380.000      0.61990000
       11382.000      0.62450000
       11383.000      0.62450000
       11384.000      0.62380000
       11386.000      0.62310000
       11387.000      0.62140000
       11388.000      0.61830000
       11390.000      0.61340000
       11391.000      0.61080000
       11392.000      0.61480000
       11393.000      0.62210000
       11395.000      0.62680000
       11396.000      0.62710000
       11397.000      0.62320000
       11399.000      0.61970000
       11400.000      0.62060000
       11401.000      0.62150000
       11403.000      0.61860000
       11404.000      0.61310000
       11405.000      0.60760000
       11406.000      0.60700000
       11408.000      0.61270000
       11409.000      0.61920000
       11410.000      0.62290000
       11412.000      0.62520000
       11413.000      0.62700000
       11414.000      0.62940000
       11416.000      0.63120000
       11417.000      0.62820000
       11418.000      0.62170000
       11419.000      0.61710000
       11421.000      0.61610000
       11422.000      0.61790000
       11423.000      0.61970000
       11425.000      0.61830000
       11426.000      0.61580000
       11427.000      0.61690000
       11429.000      0.61980000
       11430.000      0.62160000
       11431.000      0.62080000
       11432.000      0.61740000
       11434.000      0.61630000
       11435.000      0.62110000
       11436.000      0.62650000
       11438.000      0.62770000
       11439.000      0.62450000
       11440.000      0.61910000
       11442.000      0.61760000
       11443.000      0.62200000
       11444.000      0.62670000
       11446.000      0.62780000
       11447.000      0.62570000
       11448.000      0.62250000
       11450.000      0.62210000
       11451.000      0.62460000
       11452.000      0.62530000
       11453.000      0.62340000
       11455.000      0.62170000
       11456.000      0.62110000
       11457.000      0.62190000
       11459.000      0.62250000
       11460.000      0.62010000
       11461.000      0.61740000
       11463.000      0.61850000
       11464.000      0.62230000
       11465.000      0.62590000
       11467.000      0.62650000
       11468.000      0.62270000
       11469.000      0.61860000
       11471.000      0.61860000
       11472.000      0.62080000
       11473.000      0.62290000
       11474.000      0.62330000
       11476.000      0.62160000
       11477.000      0.62120000
       11478.000      0.62330000
       11480.000      0.62490000
       11481.000      0.62430000
       11482.000      0.62270000
       11484.000      0.62110000
       11485.000      0.62120000
       11486.000      0.62210000
       11488.000      0.62040000
       11489.000      0.61680000
       11490.000      0.61480000
       11492.000      0.61580000
       11493.000      0.61920000
       11494.000      0.62280000
       11496.000      0.62370000
       11497.000      0.62400000
       11498.000      0.62730000
       11500.000      0.63210000
       11501.000      0.63560000
       11502.000      0.63560000
       11504.000      0.63140000
       11505.000      0.62700000
       11506.000      0.62630000
       11507.000      0.62710000
       11509.000      0.62670000
       11510.000      0.62510000
       11511.000      0.62320000
       11513.000      0.62450000
       11514.000      0.62970000
       11515.000      0.63390000
       11517.000      0.63460000
       11518.000      0.63270000
       11519.000      0.63050000
       11521.000      0.63100000
       11522.000      0.63370000
       11523.000      0.63480000
       11525.000      0.63350000
       11526.000      0.63250000
       11527.000      0.63220000
       11529.000      0.63230000
       11530.000      0.63160000
       11531.000      0.62830000
       11533.000      0.62540000
       11534.000      0.62690000
       11535.000      0.63160000
       11537.000      0.63650000
       11538.000      0.63880000
       11539.000      0.63740000
       11541.000      0.63600000
       11542.000      0.63800000
       11543.000      0.64100000
       11545.000      0.64250000
       11546.000      0.64200000
       11547.000      0.64050000
       11549.000      0.64130000
       11550.000      0.64540000
       11551.000      0.64810000
       11553.000      0.64690000
       11554.000      0.64400000
       11555.000      0.64110000
       11557.000      0.63980000
       11558.000      0.63890000
       11559.000      0.63400000
       11561.000      0.62660000
       11562.000      0.62250000
       11563.000      0.62380000
       11565.000      0.62990000
       11566.000      0.63610000
       11567.000      0.63660000
       11569.000      0.63370000
       11570.000      0.63320000
       11571.000      0.63660000
       11573.000      0.64330000
       11574.000      0.64930000
       11575.000      0.65050000
       11577.000      0.64970000
       11578.000      0.65000000
       11579.000      0.64990000
       11581.000      0.64800000
       11582.000      0.64460000
       11583.000      0.64060000
       11585.000      0.64020000
       11586.000      0.64410000
       11587.000      0.64740000
       11589.000      0.64740000
       11590.000      0.64490000
       11592.000      0.64250000
       11593.000      0.64390000
       11594.000      0.64850000
       11596.000      0.65110000
       11597.000      0.65080000
       11598.000      0.64990000
       11600.000      0.64980000
       11601.000      0.65120000
       11602.000      0.65150000
       11604.000      0.64690000
       11605.000      0.64070000
       11606.000      0.63800000
       11608.000      0.63970000
       11609.000      0.64430000
       11610.000      0.64760000
       11612.000      0.64620000
       11613.000      0.64340000
       11614.000      0.64350000
       11616.000      0.64590000
       11617.000      0.64930000
       11618.000      0.65160000
       11620.000      0.65190000
       11621.000      0.65360000
       11623.000      0.65760000
       11624.000      0.65970000
       11625.000      0.65780000
       11627.000      0.65270000
       11628.000      0.64710000
       11629.000      0.64550000
       11631.000      0.64790000
       11632.000      0.64960000
       11633.000      0.64950000
       11635.000      0.64920000
       11636.000      0.65020000
       11637.000      0.65400000
       11639.000      0.65810000
       11640.000      0.65840000
       11641.000      0.65590000
       11643.000      0.65380000
       11644.000      0.65310000
       11646.000      0.65360000
       11647.000      0.65320000
       11648.000      0.64990000
       11650.000      0.64640000
       11651.000      0.64610000
       11652.000      0.64780000
       11654.000      0.65010000
       11655.000      0.65250000
       11656.000      0.65510000
       11658.000      0.66070000
       11659.000      0.66910000
       11660.000      0.67510000
       11662.000      0.67550000
       11663.000      0.67110000
       11665.000      0.66490000
       11666.000      0.66230000
       11667.000      0.66340000
       11669.000      0.66350000
       11670.000      0.66070000
       11671.000      0.65620000
       11673.000      0.65230000
       11674.000      0.65200000
       11675.000      0.65410000
       11677.000      0.65470000
       11678.000      0.65420000
       11680.000      0.65440000
       11681.000      0.65500000
       11682.000      0.65570000
       11684.000      0.65450000
       11685.000      0.65040000
       11686.000      0.64740000
       11688.000      0.64900000
       11689.000      0.65430000
       11690.000      0.66060000
       11692.000      0.66460000
       11693.000      0.66450000
       11695.000      0.66340000
       11696.000      0.66290000
       11697.000      0.66160000
       11699.000      0.65920000
       11700.000      0.65690000
       11701.000      0.65640000
       11703.000      0.65980000
       11704.000      0.66520000
       11705.000      0.66730000
       11707.000      0.66490000
       11708.000      0.66030000
       11710.000      0.65660000
       11711.000      0.65660000
       11712.000      0.65870000
       11714.000      0.65900000
       11715.000      0.65830000
       11716.000      0.65930000
       11718.000      0.66210000
       11719.000      0.66600000
       11721.000      0.66860000
       11722.000      0.66780000
       11723.000      0.66690000
       11725.000      0.66870000
       11726.000      0.67150000
       11727.000      0.67290000
       11729.000      0.67070000
       11730.000      0.66480000
       11732.000      0.66070000
       11733.000      0.66140000
       11734.000      0.66470000
       11736.000      0.66790000
       11737.000      0.66900000
       11738.000      0.66820000
       11740.000      0.66880000
       11741.000      0.67110000
       11743.000      0.67150000
       11744.000      0.66980000
       11745.000      0.66800000
       11747.000      0.66850000
       11748.000      0.67310000
       11750.000      0.67830000
       11751.000      0.67860000
       11752.000      0.67390000
       11754.000      0.66720000
       11755.000      0.66160000
       11756.000      0.65940000
       11758.000      0.65920000
       11759.000      0.65870000
       11761.000      0.65980000
       11762.000      0.66370000
       11763.000      0.66920000
       11765.000      0.67400000
       11766.000      0.67510000
       11767.000      0.67180000
       11769.000      0.66800000
       11770.000      0.66650000
       11772.000      0.66650000
       11773.000      0.66680000
       11774.000      0.66660000
       11776.000      0.66590000
       11777.000      0.66710000
       11779.000      0.66940000
       11780.000      0.66930000
       11781.000      0.66640000
       11783.000      0.66240000
       11784.000      0.65990000
       11786.000      0.66160000
       11787.000      0.66650000
       11788.000      0.67080000
       11790.000      0.67430000
       11791.000      0.67790000
       11792.000      0.68090000
       11794.000      0.68240000
       11795.000      0.68010000
       11797.000      0.67260000
       11798.000      0.66450000
       11799.000      0.66030000
       11801.000      0.66040000
       11802.000      0.66340000
       11804.000      0.66630000
       11805.000      0.66680000
       11806.000      0.66710000
       11808.000      0.66840000
       11809.000      0.66840000
       11811.000      0.66630000
       11812.000      0.66280000
       11813.000      0.65980000
       11815.000      0.66100000
       11816.000      0.66570000
       11818.000      0.66960000
       11819.000      0.67060000
       11820.000      0.66950000
       11822.000      0.66840000
       11823.000      0.67040000
       11825.000      0.67400000
       11826.000      0.67550000
       11827.000      0.67470000
       11829.000      0.67300000
       11830.000      0.67160000
       11832.000      0.67170000
       11833.000      0.67210000
       11834.000      0.67120000
       11836.000      0.67140000
       11837.000      0.67400000
       11839.000      0.67690000
       11840.000      0.67810000
       11841.000      0.67540000
       11843.000      0.66940000
       11844.000      0.66520000
       11846.000      0.66550000
       11847.000      0.66750000
       11848.000      0.66860000
       11850.000      0.66700000
       11851.000      0.66350000
       11853.000      0.66210000
       11854.000      0.66340000
       11855.000      0.66440000
       11857.000      0.66410000
       11858.000      0.66320000
       11860.000      0.66340000
       11861.000      0.66760000
       11862.000      0.67320000
       11864.000      0.67600000
       11865.000      0.67600000
       11867.000      0.67550000
       11868.000      0.67650000
       11869.000      0.68000000
       11871.000      0.68310000
       11872.000      0.68240000
       11874.000      0.67980000
       11875.000      0.67780000
       11876.000      0.67680000
       11878.000      0.67680000
       11879.000      0.67600000
       11881.000      0.67400000
       11882.000      0.67450000
       11884.000      0.67860000
       11885.000      0.68300000
       11886.000      0.68470000
       11888.000      0.68230000
       11889.000      0.67730000
       11891.000      0.67530000
       11892.000      0.67710000
       11893.000      0.67920000
       11895.000      0.67920000
       11896.000      0.67670000
       11898.000      0.67330000
       11899.000      0.67270000
       11901.000      0.67360000
       11902.000      0.67260000
       11903.000      0.67010000
       11905.000      0.66820000
       11906.000      0.66910000
       11908.000      0.67390000
       11909.000      0.67870000
       11910.000      0.67940000
       11912.000      0.67750000
       11913.000      0.67540000
       11915.000      0.67480000
       11916.000      0.67630000
       11918.000      0.67730000
       11919.000      0.67640000
       11920.000      0.67630000
       11922.000      0.67860000
       11923.000      0.68190000
       11925.000      0.68450000
       11926.000      0.68410000
       11927.000      0.68140000
       11929.000      0.68010000
       11930.000      0.68090000
       11932.000      0.68120000
       11933.000      0.67980000
       11935.000      0.67680000
       11936.000      0.67430000
       11937.000      0.67570000
       11939.000      0.67940000
       11940.000      0.68170000
       11942.000      0.68190000
       11943.000      0.68070000
       11945.000      0.67920000
       11946.000      0.67860000
       11947.000      0.67710000
       11949.000      0.67320000
       11950.000      0.66990000
       11952.000      0.67020000
       11953.000      0.67400000
       11955.000      0.67970000
       11956.000      0.68330000
       11957.000      0.68290000
       11959.000      0.68210000
       11960.000      0.68350000
       11962.000      0.68560000
       11963.000      0.68690000
       11965.000      0.68540000
       11966.000      0.68220000
       11967.000      0.68210000
       11969.000      0.68540000
       11970.000      0.68810000
       11972.000      0.68790000
       11973.000      0.68390000
       11975.000      0.67850000
       11976.000      0.67670000
       11977.000      0.67750000
       11979.000      0.67700000
       11980.000      0.67520000
       11982.000      0.67330000
       11983.000      0.67390000
       11985.000      0.67880000
       11986.000      0.68390000
       11988.000      0.68500000
       11989.000      0.68330000
       11990.000      0.68150000
       11992.000      0.68250000
       11993.000      0.68720000
       11995.000      0.69160000
       11996.000      0.69290000
       11998.000      0.69270000
       11999.000      0.69280000
       12000.000      0.69350000
       12002.000      0.69460000
       12003.000      0.69410000
       12005.000      0.69220000
       12006.000      0.69250000
       12008.000      0.69460000
       12009.000      0.69550000
       12011.000      0.69340000
       12012.000      0.68730000
       12013.000      0.68040000
       12015.000      0.67780000
       12016.000      0.67900000
       12018.000      0.68060000
       12019.000      0.68100000
       12021.000      0.67970000
       12022.000      0.67880000
       12024.000      0.68070000
       12025.000      0.68330000
       12026.000      0.68390000
       12028.000      0.68320000
       12029.000      0.68230000
       12031.000      0.68210000
       12032.000      0.68280000
       12034.000      0.68190000
       12035.000      0.67880000
       12037.000      0.67730000
       12038.000      0.67930000
       12039.000      0.68370000
       12041.000      0.68800000
       12042.000      0.68840000
       12044.000      0.68490000
       12045.000      0.68230000
       12047.000      0.68240000
       12048.000      0.68360000
       12050.000      0.68440000
       12051.000      0.68280000
       12053.000      0.68070000
       12054.000      0.68210000
       12055.000      0.68640000
       12057.000      0.69060000
       12058.000      0.69250000
       12060.000      0.69100000
       12061.000      0.68810000
       12063.000      0.68680000
       12064.000      0.68600000
       12066.000      0.68420000
       12067.000      0.68300000
       12069.000      0.68330000
       12070.000      0.68530000
       12071.000      0.68800000
       12073.000      0.68800000
       12074.000      0.68440000
       12076.000      0.68130000
       12077.000      0.68150000
       12079.000      0.68510000
       12080.000      0.69020000
       12082.000      0.69260000
       12083.000      0.69180000
       12085.000      0.69190000
       12086.000      0.69420000
       12088.000      0.69710000
       12089.000      0.69850000
       12090.000      0.69620000
       12092.000      0.69220000
       12093.000      0.69100000
       12095.000      0.69270000
       12096.000      0.69480000
       12098.000      0.69590000
       12099.000      0.69490000
       12101.000      0.69380000
       12102.000      0.69510000
       12104.000      0.69680000
       12105.000      0.69660000
       12107.000      0.69500000
       12108.000      0.69320000
       12109.000      0.69270000
       12111.000      0.69450000
       12112.000      0.69520000
       12114.000      0.69320000
       12115.000      0.69050000
       12117.000      0.68900000
       12118.000      0.68930000
       12120.000      0.69090000
       12121.000      0.69110000
       12123.000      0.68990000
       12124.000      0.68960000
       12126.000      0.69080000
       12127.000      0.69230000
       12129.000      0.69310000
       12130.000      0.69250000
       12132.000      0.69150000
       12133.000      0.69260000
       12134.000      0.69440000
       12136.000      0.69390000
       12137.000      0.69150000
       12139.000      0.68880000
       12140.000      0.68850000
       12142.000      0.69240000
       12143.000      0.69690000
       12145.000      0.69800000
       12146.000      0.69680000
       12148.000      0.69530000
       12149.000      0.69580000
       12151.000      0.69910000
       12152.000      0.70130000
       12154.000      0.70050000
       12155.000      0.69990000
       12157.000      0.70120000
       12158.000      0.70430000
       12160.000      0.70700000
       12161.000      0.70510000
       12162.000      0.69910000
       12164.000      0.69450000
       12165.000      0.69370000
       12167.000      0.69560000
       12168.000      0.69790000
       12170.000      0.69710000
       12171.000      0.69450000
       12173.000      0.69430000
       12174.000      0.69680000
       12176.000      0.69970000
       12177.000      0.70130000
       12179.000      0.70000000
       12180.000      0.69790000
       12182.000      0.69800000
       12183.000      0.69900000
       12185.000      0.69900000
       12186.000      0.69870000
       12188.000      0.69890000
       12189.000      0.70040000
       12191.000      0.70300000
       12192.000      0.70300000
       12194.000      0.69890000
       12195.000      0.69450000
       12197.000      0.69290000
       12198.000      0.69520000
       12200.000      0.70030000
       12201.000      0.70350000
       12203.000      0.70360000
       12204.000      0.70380000
       12206.000      0.70560000
       12207.000      0.70850000
       12209.000      0.71080000
       12210.000      0.70960000
       12212.000      0.70590000
       12213.000      0.70360000
       12214.000      0.70270000
       12216.000      0.70150000
       12217.000      0.69940000
       12219.000      0.69670000
       12220.000      0.69560000
       12222.000      0.69840000
       12223.000      0.70200000
       12225.000      0.70310000
       12226.000      0.70160000
       12228.000      0.69880000
       12229.000      0.69780000
       12231.000      0.70000000
       12232.000      0.70180000
       12234.000      0.70060000
       12235.000      0.69800000
       12237.000      0.69580000
       12238.000      0.69570000
       12240.000      0.69750000
       12241.000      0.69760000
       12243.000      0.69540000
       12244.000      0.69360000
       12246.000      0.69360000
       12247.000      0.69530000
       12249.000      0.69760000
       12250.000      0.69830000
       12252.000      0.69840000
       12253.000      0.70040000
       12255.000      0.70360000
       12256.000      0.70550000
       12258.000      0.70480000
       12259.000      0.70120000
       12261.000      0.69800000
       12262.000      0.69840000
       12264.000      0.70070000
       12265.000      0.70220000
       12267.000      0.70230000
       12268.000      0.70140000
       12270.000      0.70110000
       12271.000      0.70260000
       12273.000      0.70340000
       12274.000      0.70180000
       12276.000      0.69990000
       12277.000      0.69900000
       12279.000      0.70020000
       12280.000      0.70270000
       12282.000      0.70370000
       12284.000      0.70300000
       12285.000      0.70380000
       12287.000      0.70660000
       12288.000      0.70980000
       12290.000      0.71130000
       12291.000      0.70870000
       12293.000      0.70440000
       12294.000      0.70300000
       12296.000      0.70480000
       12297.000      0.70750000
       12299.000      0.70890000
       12300.000      0.70720000
       12302.000      0.70510000
       12303.000      0.70600000
       12305.000      0.70770000
       12306.000      0.70780000
       12308.000      0.70570000
       12309.000      0.70220000
       12311.000      0.70080000
       12312.000      0.70350000
       12314.000      0.70730000
       12315.000      0.70920000
       12317.000      0.70880000
       12318.000      0.70660000
       12320.000      0.70430000
       12321.000      0.70310000
       12323.000      0.70130000
       12324.000      0.69940000
       12326.000      0.70000000
       12327.000      0.70340000
       12329.000      0.70830000
       12330.000      0.71220000
       12332.000      0.71230000
       12333.000      0.70990000
       12335.000      0.70870000
       12337.000      0.70910000
       12338.000      0.70980000
       12340.000      0.70920000
       12341.000      0.70600000
       12343.000      0.70260000
       12344.000      0.70220000
       12346.000      0.70360000
       12347.000      0.70500000
       12349.000      0.70550000
       12350.000      0.70490000
       12352.000      0.70470000
       12353.000      0.70590000
       12355.000      0.70620000
       12356.000      0.70460000
       12358.000      0.70310000
       12359.000      0.70290000
       12361.000      0.70440000
       12362.000      0.70660000
       12364.000      0.70620000
       12366.000      0.70320000
       12367.000      0.70080000
       12369.000      0.70090000
       12370.000      0.70320000
       12372.000      0.70650000
       12373.000      0.70780000
       12375.000      0.70800000
       12376.000      0.70980000
       12378.000      0.71250000
       12379.000      0.71430000
       12381.000      0.71400000
       12382.000      0.71110000
       12384.000      0.70860000
       12385.000      0.70950000
       12387.000      0.71210000
       12389.000      0.71360000
       12390.000      0.71350000
       12392.000      0.71210000
       12393.000      0.71170000
       12395.000      0.71370000
       12396.000      0.71540000
       12398.000      0.71480000
       12399.000      0.71350000
       12401.000      0.71280000
       12402.000      0.71390000
       12404.000      0.71590000
       12405.000      0.71540000
       12407.000      0.71220000
       12408.000      0.70960000
       12410.000      0.70950000
       12412.000      0.71200000
       12413.000      0.71510000
       12415.000      0.71520000
       12416.000      0.71270000
       12418.000      0.71070000
       12419.000      0.71010000
       12421.000      0.71050000
       12422.000      0.71110000
       12424.000      0.71070000
       12425.000      0.71100000
       12427.000      0.71390000
       12429.000      0.71730000
       12430.000      0.71880000
       12432.000      0.71810000
       12433.000      0.71630000
       12435.000      0.71580000
       12436.000      0.71790000
       12438.000      0.71980000
       12439.000      0.71910000
       12441.000      0.71700000
       12442.000      0.71480000
       12444.000      0.71410000
       12446.000      0.71480000
       12447.000      0.71420000
       12449.000      0.71230000
       12450.000      0.71240000
       12452.000      0.71510000
       12453.000      0.71980000
       12455.000      0.72350000
       12456.000      0.72250000
       12458.000      0.71830000
       12460.000      0.71540000
       12461.000      0.71530000
       12463.000      0.71740000
       12464.000      0.71950000
       12466.000      0.71910000
       12467.000      0.71780000
       12469.000      0.71810000
       12470.000      0.71890000
       12472.000      0.71850000
       12473.000      0.71650000
       12475.000      0.71320000
       12477.000      0.71130000
       12478.000      0.71240000
       12480.000      0.71420000
       12481.000      0.71510000
       12483.000      0.71540000
       12484.000      0.71580000
       12486.000      0.71780000
       12488.000      0.72130000
       12489.000      0.72310000
       12491.000      0.72260000
       12492.000      0.72210000
       12494.000      0.72260000
       12495.000      0.72460000
       12497.000      0.72670000
       12498.000      0.72660000
       12500.000      0.72490000
       12502.000      0.72450000
       12503.000      0.72550000
       12505.000      0.72680000
       12506.000      0.72680000
       12508.000      0.72470000
       12509.000      0.72260000
       12511.000      0.72340000
       12513.000      0.72560000
       12514.000      0.72710000
       12516.000      0.72720000
       12517.000      0.72600000
       12519.000      0.72610000
       12520.000      0.72890000
       12522.000      0.73140000
       12523.000      0.73170000
       12525.000      0.73060000
       12527.000      0.72960000
       12528.000      0.73060000
       12530.000      0.73320000
       12531.000      0.73410000
       12533.000      0.73250000
       12534.000      0.73080000
       12536.000      0.73030000
       12538.000      0.73210000
       12539.000      0.73450000
       12541.000      0.73430000
       12542.000      0.73250000
       12544.000      0.73190000
       12545.000      0.73320000
       12547.000      0.73560000
       12549.000      0.73710000
       12550.000      0.73550000
       12552.000      0.73260000
       12553.000      0.73150000
       12555.000      0.73190000
       12557.000      0.73320000
       12558.000      0.73470000
       12560.000      0.73580000
       12561.000      0.73760000
       12563.000      0.74080000
       12564.000      0.74270000
       12566.000      0.74200000
       12568.000      0.73980000
       12569.000      0.73750000
       12571.000      0.73680000
       12572.000      0.73750000
       12574.000      0.73700000
       12575.000      0.73490000
       12577.000      0.73390000
       12579.000      0.73530000
       12580.000      0.73890000
       12582.000      0.74260000
       12583.000      0.74270000
       12585.000      0.74000000
       12587.000      0.73750000
       12588.000      0.73650000
       12590.000      0.73710000
       12591.000      0.73820000
       12593.000      0.73810000
       12594.000      0.73860000
       12596.000      0.74180000
       12598.000      0.74590000
       12599.000      0.74860000
       12601.000      0.74880000
       12602.000      0.74650000
       12604.000      0.74420000
       12606.000      0.74400000
       12607.000      0.74400000
       12609.000      0.74270000
       12610.000      0.74070000
       12612.000      0.73890000
       12614.000      0.73880000
       12615.000      0.74030000
       12617.000      0.74070000
       12618.000      0.73960000
       12620.000      0.73890000
       12621.000      0.74000000
       12623.000      0.74300000
       12625.000      0.74600000
       12626.000      0.74590000
       12628.000      0.74340000
       12629.000      0.74160000
       12631.000      0.74140000
       12633.000      0.74220000
       12634.000      0.74230000
       12636.000      0.73980000
       12637.000      0.73680000
       12639.000      0.73620000
       12641.000      0.73770000
       12642.000      0.74000000
       12644.000      0.74120000
       12645.000      0.74010000
       12647.000      0.73850000
       12649.000      0.73780000
       12650.000      0.73700000
       12652.000      0.73590000
       12653.000      0.73500000
       12655.000      0.73520000
       12657.000      0.73760000
       12658.000      0.74140000
       12660.000      0.74320000
       12661.000      0.74230000
       12663.000      0.74070000
       12665.000      0.74010000
       12666.000      0.74130000
       12668.000      0.74290000
       12669.000      0.74200000
       12671.000      0.73920000
       12673.000      0.73700000
       12674.000      0.73640000
       12676.000      0.73730000
       12677.000      0.73840000
       12679.000      0.73760000
       12681.000      0.73680000
       12682.000      0.73800000
       12684.000      0.74070000
       12686.000      0.74340000
       12687.000      0.74480000
       12689.000      0.74400000
       12690.000      0.74270000
       12692.000      0.74220000
       12694.000      0.74140000
       12695.000      0.73960000
       12697.000      0.73760000
       12698.000      0.73630000
       12700.000      0.73680000
       12702.000      0.73850000
       12703.000      0.73860000
       12705.000      0.73640000
       12706.000      0.73420000
       12708.000      0.73340000
       12710.000      0.73490000
       12711.000      0.73730000
       12713.000      0.73740000
       12715.000      0.73580000
       12716.000      0.73500000
       12718.000      0.73610000
       12719.000      0.73900000
       12721.000      0.74160000
       12723.000      0.74150000
       12724.000      0.73970000
       12726.000      0.73820000
       12728.000      0.73760000
       12729.000      0.73780000
       12731.000      0.73810000
       12732.000      0.73760000
       12734.000      0.73760000
       12736.000      0.73850000
       12737.000      0.73950000
       12739.000      0.73980000
       12740.000      0.74010000
       12742.000      0.74060000
       12744.000      0.74190000
       12745.000      0.74330000
       12747.000      0.74280000
       12749.000      0.74060000
       12750.000      0.73870000
       12752.000      0.73870000
       12753.000      0.74050000
       12755.000      0.74280000
       12757.000      0.74320000
       12758.000      0.74240000
       12760.000      0.74310000
       12762.000      0.74560000
       12763.000      0.74940000
       12765.000      0.75200000
       12767.000      0.75130000
       12768.000      0.74850000
       12770.000      0.74590000
       12771.000      0.74410000
       12773.000      0.74290000
       12775.000      0.74190000
       12776.000      0.74070000
       12778.000      0.74050000
       12780.000      0.74180000
       12781.000      0.74270000
       12783.000      0.74230000
       12784.000      0.74110000
       12786.000      0.74030000
       12788.000      0.74120000
       12789.000      0.74370000
       12791.000      0.74520000
       12793.000      0.74470000
       12794.000      0.74310000
       12796.000      0.74150000
       12798.000      0.74120000
       12799.000      0.74180000
       12801.000      0.74210000
       12802.000      0.74230000
       12804.000      0.74380000
       12806.000      0.74630000
       12807.000      0.74860000
       12809.000      0.74960000
       12811.000      0.74810000
       12812.000      0.74570000
       12814.000      0.74460000
       12816.000      0.74420000
       12817.000      0.74370000
       12819.000      0.74310000
       12821.000      0.74250000
       12822.000      0.74360000
       12824.000      0.74680000
       12825.000      0.74960000
       12827.000      0.75020000
       12829.000      0.74870000
       12830.000      0.74610000
       12832.000      0.74480000
       12834.000      0.74540000
       12835.000      0.74610000
       12837.000      0.74610000
       12839.000      0.74630000
       12840.000      0.74700000
       12842.000      0.74860000
       12844.000      0.75030000
       12845.000      0.75050000
       12847.000      0.74980000
       12849.000      0.74990000
       12850.000      0.75100000
       12852.000      0.75260000
       12853.000      0.75340000
       12855.000      0.75230000
       12857.000      0.75060000
       12858.000      0.75010000
       12860.000      0.75080000
       12862.000      0.75190000
       12863.000      0.75310000
       12865.000      0.75400000
       12867.000      0.75540000
       12868.000      0.75740000
       12870.000      0.75840000
       12872.000      0.75760000
       12873.000      0.75600000
       12875.000      0.75440000
       12877.000      0.75410000
       12878.000      0.75490000
       12880.000      0.75470000
       12882.000      0.75330000
       12883.000      0.75230000
       12885.000      0.75280000
       12887.000      0.75480000
       12888.000      0.75690000
       12890.000      0.75690000
       12892.000      0.75550000
       12893.000      0.75520000
       12895.000      0.75630000
       12897.000      0.75850000
       12898.000      0.76020000
       12900.000      0.75990000
       12902.000      0.75890000
       12903.000      0.75910000
       12905.000      0.75980000
       12907.000      0.76030000
       12908.000      0.75990000
       12910.000      0.75820000
       12912.000      0.75710000
       12913.000      0.75730000
       12915.000      0.75760000
       12917.000      0.75710000
       12918.000      0.75600000
       12920.000      0.75520000
       12922.000      0.75600000
       12923.000      0.75810000
       12925.000      0.75940000
       12927.000      0.75910000
       12928.000      0.75840000
       12930.000      0.75840000
       12932.000      0.75980000
       12933.000      0.76220000
       12935.000      0.76390000
       12937.000      0.76500000
       12938.000      0.76640000
       12940.000      0.76770000
       12942.000      0.76860000
       12943.000      0.76830000
       12945.000      0.76670000
       12947.000      0.76550000
       12948.000      0.76630000
       12950.000      0.76800000
       12952.000      0.76900000
       12953.000      0.76870000
       12955.000      0.76720000
       12957.000      0.76640000
       12958.000      0.76740000
       12960.000      0.76870000
       12962.000      0.76890000
       12963.000      0.76830000
       12965.000      0.76770000
       12967.000      0.76840000
       12968.000      0.77010000
       12970.000      0.77050000
       12972.000      0.76890000
       12974.000      0.76630000
       12975.000      0.76430000
       12977.000      0.76410000
       12979.000      0.76480000
       12980.000      0.76460000
       12982.000      0.76360000
       12984.000      0.76290000
       12985.000      0.76320000
       12987.000      0.76440000
       12989.000      0.76590000
       12990.000      0.76660000
       12992.000      0.76710000
       12994.000      0.76830000
       12995.000      0.76950000
       12997.000      0.76990000
       12999.000      0.76950000
       13001.000      0.76860000
       13002.000      0.76850000
       13004.000      0.76960000
       13006.000      0.77020000
       13007.000      0.76920000
       13009.000      0.76740000
       13011.000      0.76590000
       13012.000      0.76630000
       13014.000      0.76830000
       13016.000      0.76990000
       13017.000      0.77020000
       13019.000      0.77040000
       13021.000      0.77080000
       13023.000      0.77210000
       13024.000      0.77350000
       13026.000      0.77320000
       13028.000      0.77170000
       13029.000      0.77060000
       13031.000      0.77010000
       13033.000      0.76980000
       13034.000      0.76910000
       13036.000      0.76750000
       13038.000      0.76660000
       13040.000      0.76800000
       13041.000      0.77040000
       13043.000      0.77220000
       13045.000      0.77280000
       13046.000      0.77200000
       13048.000      0.77160000
       13050.000      0.77270000
       13051.000      0.77370000
       13053.000      0.77330000
       13055.000      0.77160000
       13057.000      0.76940000
       13058.000      0.76840000
       13060.000      0.76900000
       13062.000      0.76940000
       13063.000      0.76920000
       13065.000      0.76910000
       13067.000      0.76970000
       13068.000      0.77120000
       13070.000      0.77280000
       13072.000      0.77260000
       13074.000      0.77120000
       13075.000      0.77030000
       13077.000      0.77060000
       13079.000      0.77180000
       13080.000      0.77320000
       13082.000      0.77350000
       13084.000      0.77330000
       13086.000      0.77370000
       13087.000      0.77410000
       13089.000      0.77370000
       13091.000      0.77250000
       13092.000      0.77080000
       13094.000      0.77000000
       13096.000      0.77090000
       13098.000      0.77190000
       13099.000      0.77190000
       13101.000      0.77140000
       13103.000      0.77120000
       13104.000      0.77250000
       13106.000      0.77490000
       13108.000      0.77630000
       13110.000      0.77600000
       13111.000      0.77470000
       13113.000      0.77340000
       13115.000      0.77290000
       13116.000      0.77300000
       13118.000      0.77240000
       13120.000      0.77150000
       13122.000      0.77150000
       13123.000      0.77230000
       13125.000      0.77330000
       13127.000      0.77380000
       13129.000      0.77330000
       13130.000      0.77310000
       13132.000      0.77450000
       13134.000      0.77610000
       13135.000      0.77670000
       13137.000      0.77590000
       13139.000      0.77410000
       13141.000      0.77330000
       13142.000      0.77450000
       13144.000      0.77620000
       13146.000      0.77720000
       13148.000      0.77750000
       13149.000      0.77730000
       13151.000      0.77770000
       13153.000      0.77850000
       13154.000      0.77820000
       13156.000      0.77660000
       13158.000      0.77550000
       13160.000      0.77560000
       13161.000      0.77710000
       13163.000      0.77890000
       13165.000      0.77890000
       13167.000      0.77750000
       13168.000      0.77660000
       13170.000      0.77670000
       13172.000      0.77760000
       13173.000      0.77820000
       13175.000      0.77740000
       13177.000      0.77620000
       13179.000      0.77590000
       13180.000      0.77590000
       13182.000      0.77540000
       13184.000      0.77440000
       13186.000      0.77310000
       13187.000      0.77300000
       13189.000      0.77470000
       13191.000      0.77630000
       13193.000      0.77650000
       13194.000      0.77570000
       13196.000      0.77450000
       13198.000      0.77430000
       13200.000      0.77490000
       13201.000      0.77450000
       13203.000      0.77290000
       13205.000      0.77160000
       13207.000      0.77170000
       13208.000      0.77370000
       13210.000      0.77630000
       13212.000      0.77740000
       13214.000      0.77740000
       13215.000      0.77770000
       13217.000      0.77870000
       13219.000      0.77990000
       13221.000      0.78050000
       13222.000      0.77940000
       13224.000      0.77820000
       13226.000      0.77840000
       13228.000      0.77950000
       13229.000      0.78030000
       13231.000      0.78000000
       13233.000      0.77850000
       13235.000      0.77760000
       13236.000      0.77830000
       13238.000      0.77920000
       13240.000      0.77930000
       13242.000      0.77870000
       13243.000      0.77820000
       13245.000      0.77920000
       13247.000      0.78150000
       13249.000      0.78280000
       13250.000      0.78220000
       13252.000      0.78050000
       13254.000      0.77880000
       13256.000      0.77830000
       13257.000      0.77870000
       13259.000      0.77820000
       13261.000      0.77700000
       13263.000      0.77630000
       13264.000      0.77640000
       13266.000      0.77710000
       13268.000      0.77760000
       13270.000      0.77690000
       13271.000      0.77610000
       13273.000      0.77660000
       13275.000      0.77790000
       13277.000      0.77910000
       13278.000      0.77960000
       13280.000      0.77890000
       13282.000      0.77860000
       13284.000      0.77940000
       13286.000      0.78000000
       13287.000      0.77930000
       13289.000      0.77750000
       13291.000      0.77550000
       13293.000      0.77510000
       13294.000      0.77660000
       13296.000      0.77810000
       13298.000      0.77860000
       13300.000      0.77830000
       13301.000      0.77770000
       13303.000      0.77800000
       13305.000      0.77900000
       13307.000      0.77940000
       13308.000      0.77920000
       13310.000      0.77910000
       13312.000      0.77910000
       13314.000      0.77940000
       13316.000      0.77940000
       13317.000      0.77870000
       13319.000      0.77780000
       13321.000      0.77750000
       13323.000      0.77740000
       13324.000      0.77710000
       13326.000      0.77660000
       13328.000      0.77640000
       13330.000      0.77720000
       13332.000      0.77920000
       13333.000      0.78050000
       13335.000      0.78020000
       13337.000      0.77910000
       13339.000      0.77820000
       13340.000      0.77860000
       13342.000      0.78010000
       13344.000      0.78060000
       13346.000      0.77980000
       13348.000      0.77900000
       13349.000      0.77910000
       13351.000      0.78030000
       13353.000      0.78190000
       13355.000      0.78200000
       13356.000      0.78080000
       13358.000      0.78010000
       13360.000      0.78020000
       13362.000      0.78090000
       13364.000      0.78130000
       13365.000      0.78040000
       13367.000      0.77940000
       13369.000      0.77970000
       13371.000      0.78090000
       13373.000      0.78200000
       13374.000      0.78230000
       13376.000      0.78160000
       13378.000      0.78120000
       13380.000      0.78220000
       13382.000      0.78310000
       13383.000      0.78320000
       13385.000      0.78270000
       13387.000      0.78210000
       13389.000      0.78260000
       13390.000      0.78410000
       13392.000      0.78450000
       13394.000      0.78340000
       13396.000      0.78190000
       13398.000      0.78120000
       13399.000      0.78230000
       13401.000      0.78430000
       13403.000      0.78480000
       13405.000      0.78350000
       13407.000      0.78170000
       13408.000      0.78010000
       13410.000      0.77920000
       13412.000      0.77870000
       13414.000      0.77820000
       13416.000      0.77850000
       13417.000      0.78050000
       13419.000      0.78330000
       13421.000      0.78570000
       13423.000      0.78640000
       13425.000      0.78520000
       13426.000      0.78380000
       13428.000      0.78400000
       13430.000      0.78500000
       13432.000      0.78600000
       13434.000      0.78630000
       13435.000      0.78570000
       13437.000      0.78550000
       13439.000      0.78590000
       13441.000      0.78560000
       13443.000      0.78480000
       13444.000      0.78390000
       13446.000      0.78360000
       13448.000      0.78440000
       13450.000      0.78550000
       13452.000      0.78530000
       13454.000      0.78400000
       13455.000      0.78310000
       13457.000      0.78310000
       13459.000      0.78420000
       13461.000      0.78510000
       13463.000      0.78440000
       13464.000      0.78300000
       13466.000      0.78210000
       13468.000      0.78230000
       13470.000      0.78340000
       13472.000      0.78470000
       13473.000      0.78520000
       13475.000      0.78570000
       13477.000      0.78650000
       13479.000      0.78730000
       13481.000      0.78760000
       13483.000      0.78750000
       13484.000      0.78700000
       13486.000      0.78690000
       13488.000      0.78710000
       13490.000      0.78660000
       13492.000      0.78540000
       13493.000      0.78440000
       13495.000      0.78410000
       13497.000      0.78500000
       13499.000      0.78620000
       13501.000      0.78650000
       13503.000      0.78590000
       13504.000      0.78540000
       13506.000      0.78540000
       13508.000      0.78580000
       13510.000      0.78590000
       13512.000      0.78510000
       13514.000      0.78430000
       13515.000      0.78450000
       13517.000      0.78540000
       13519.000      0.78640000
       13521.000      0.78670000
       13523.000      0.78620000
       13524.000      0.78580000
       13526.000      0.78610000
       13528.000      0.78610000
       13530.000      0.78550000
       13532.000      0.78470000
       13534.000      0.78430000
       13535.000      0.78540000
       13537.000      0.78780000
       13539.000      0.78980000
       13541.000      0.79040000
       13543.000      0.79030000
       13545.000      0.79000000
       13546.000      0.79000000
       13548.000      0.79010000
       13550.000      0.78900000
       13552.000      0.78740000
       13554.000      0.78640000
       13556.000      0.78650000
       13557.000      0.78720000
       13559.000      0.78780000
       13561.000      0.78730000
       13563.000      0.78650000
       13565.000      0.78660000
       13567.000      0.78730000
       13569.000      0.78780000
       13570.000      0.78770000
       13572.000      0.78690000
       13574.000      0.78690000
       13576.000      0.78820000
       13578.000      0.78970000
       13580.000      0.79030000
       13581.000      0.78960000
       13583.000      0.78810000
       13585.000      0.78720000
       13587.000      0.78730000
       13589.000      0.78730000
       13591.000      0.78700000
       13592.000      0.78690000
       13594.000      0.78710000
       13596.000      0.78800000
       13598.000      0.78910000
       13600.000      0.78900000
       13602.000      0.78790000
       13604.000      0.78710000
       13605.000      0.78680000
       13607.000      0.78710000
       13609.000      0.78690000
       13611.000      0.78550000
       13613.000      0.78420000
       13615.000      0.78450000
       13617.000      0.78640000
       13618.000      0.78870000
       13620.000      0.79010000
       13622.000      0.78950000
       13624.000      0.78850000
       13626.000      0.78820000
       13628.000      0.78830000
       13630.000      0.78800000
       13631.000      0.78720000
       13633.000      0.78580000
       13635.000      0.78500000
       13637.000      0.78520000
       13639.000      0.78530000
       13641.000      0.78500000
       13643.000      0.78450000
       13644.000      0.78410000
       13646.000      0.78420000
       13648.000      0.78450000
       13650.000      0.78410000
       13652.000      0.78330000
       13654.000      0.78330000
       13656.000      0.78420000
       13657.000      0.78540000
       13659.000      0.78610000
       13661.000      0.78540000
       13663.000      0.78410000
       13665.000      0.78370000
       13667.000      0.78400000
       13669.000      0.78460000
       13671.000      0.78490000
       13672.000      0.78460000
       13674.000      0.78490000
       13676.000      0.78610000
       13678.000      0.78720000
       13680.000      0.78730000
       13682.000      0.78610000
       13684.000      0.78430000
       13686.000      0.78350000
       13687.000      0.78420000
       13689.000      0.78510000
       13691.000      0.78550000
       13693.000      0.78530000
       13695.000      0.78490000
       13697.000      0.78490000
       13699.000      0.78500000
       13701.000      0.78430000
       13702.000      0.78310000
       13704.000      0.78200000
       13706.000      0.78150000
       13708.000      0.78160000
       13710.000      0.78150000
       13712.000      0.78050000
       13714.000      0.77960000
       13716.000      0.77960000
       13717.000      0.78030000
       13719.000      0.78110000
       13721.000      0.78120000
       13723.000      0.78020000
       13725.000      0.77930000
       13727.000      0.77910000
       13729.000      0.77880000
       13731.000      0.77820000
       13732.000      0.77730000
       13734.000      0.77670000
       13736.000      0.77740000
       13738.000      0.77930000
       13740.000      0.78100000
       13742.000      0.78180000
       13744.000      0.78200000
       13746.000      0.78200000
       13748.000      0.78220000
       13749.000      0.78250000
       13751.000      0.78180000
       13753.000      0.78050000
       13755.000      0.77980000
       13757.000      0.77980000
       13759.000      0.78020000
       13761.000      0.78010000
       13763.000      0.77870000
       13765.000      0.77730000
       13767.000      0.77760000
       13768.000      0.77940000
       13770.000      0.78180000
       13772.000      0.78350000
       13774.000      0.78350000
       13776.000      0.78300000
       13778.000      0.78300000
       13780.000      0.78310000
       13782.000      0.78280000
       13784.000      0.78190000
       13785.000      0.78070000
       13787.000      0.78030000
       13789.000      0.78080000
       13791.000      0.78090000
       13793.000      0.78010000
       13795.000      0.77900000
       13797.000      0.77810000
       13799.000      0.77840000
       13801.000      0.77930000
       13803.000      0.77920000
       13805.000      0.77770000
       13806.000      0.77560000
       13808.000      0.77390000
       13810.000      0.77340000
       13812.000      0.77330000
       13814.000      0.77250000
       13816.000      0.77160000
       13818.000      0.77120000
       13820.000      0.77100000
       13822.000      0.77060000
       13824.000      0.76910000
       13826.000      0.76590000
       13827.000      0.76240000
       13829.000      0.75970000
       13831.000      0.75740000
       13833.000      0.75490000
       13835.000      0.75170000
       13837.000      0.74780000
       13839.000      0.74450000
       13841.000      0.74200000
       13843.000      0.73920000
       13845.000      0.73570000
       13847.000      0.73130000
       13848.000      0.72650000
       13850.000      0.72160000
       13852.000      0.71620000
       13854.000      0.70940000
       13856.000      0.70170000
       13858.000      0.69400000
       13860.000      0.68710000
       13862.000      0.68100000
       13864.000      0.67460000
       13866.000      0.66650000
       13868.000      0.65720000
       13870.000      0.64800000
       13872.000      0.63920000
       13873.000      0.63100000
       13875.000      0.62240000
       13877.000      0.61270000
       13879.000      0.60250000
       13881.000      0.59230000
       13883.000      0.58230000
       13885.000      0.57230000
       13887.000      0.56170000
       13889.000      0.55050000
       13891.000      0.53960000
       13893.000      0.52930000
       13895.000      0.51930000
       13897.000      0.50910000
       13899.000      0.49830000
       13900.000      0.48690000
       13902.000      0.47560000
       13904.000      0.46440000
       13906.000      0.45300000
       13908.000      0.44130000
       13910.000      0.42890000
       13912.000      0.41640000
       13914.000      0.40420000
       13916.000      0.39270000
       13918.000      0.38210000
       13920.000      0.37210000
       13922.000      0.36230000
       13924.000      0.35230000
       13926.000      0.34190000
       13928.000      0.33130000
       13930.000      0.32050000
       13931.000      0.31020000
       13933.000      0.30060000
       13935.000      0.29180000
       13937.000      0.28330000
       13939.000      0.27480000
       13941.000      0.26620000
       13943.000      0.25740000
       13945.000      0.24860000
       13947.000      0.24000000
       13949.000      0.23150000
       13951.000      0.22330000
       13953.000      0.21540000
       13955.000      0.20800000
       13957.000      0.20110000
       13959.000      0.19460000
       13961.000      0.18810000
       13963.000      0.18140000
       13965.000      0.17450000
       13966.000      0.16780000
       13968.000      0.16170000
       13970.000      0.15650000
       13972.000      0.15180000
       13974.000      0.14720000
       13976.000      0.14270000
       13978.000      0.13830000
       13980.000      0.13410000
       13982.000      0.13020000
       13984.000      0.12630000
       13986.000      0.12210000
       13988.000      0.11770000
       13990.000      0.11320000
       13992.000      0.10880000
       13994.000      0.10490000
       13996.000      0.10120000
       13998.000     0.097800000
       14000.000     0.094700000
       14002.000     0.091600000
       14004.000     0.088600000
       14006.000     0.085500000
       14008.000     0.082300000
       14010.000     0.079100000
       14011.000     0.076400000
       14013.000     0.074200000
       14015.000     0.072400000
       14017.000     0.070600000
       14019.000     0.068600000
       14021.000     0.066300000
       14023.000     0.063800000
       14025.000     0.061100000
       14027.000     0.058500000
       14029.000     0.056100000
       14031.000     0.054200000
       14033.000     0.052800000
       14035.000     0.051800000
       14037.000     0.050700000
       14039.000     0.049300000
       14041.000     0.047600000
       14043.000     0.045700000
       14045.000     0.043700000
       14047.000     0.042000000
       14049.000     0.040600000
       14051.000     0.039300000
       14053.000     0.038300000
       14055.000     0.037300000
       14057.000     0.036200000
       14059.000     0.035100000
       14061.000     0.034200000
       14063.000     0.033600000
       14065.000     0.033100000
       14067.000     0.032500000
       14069.000     0.031400000
       14071.000     0.029900000
       14073.000     0.028400000
       14075.000     0.027200000
       14077.000     0.026700000
       14079.000     0.026500000
       14081.000     0.026000000
       14083.000     0.025100000
       14085.000     0.023900000
       14086.000     0.022700000
       14088.000     0.021900000
       14090.000     0.021500000
       14092.000     0.021200000
       14094.000     0.020900000
       14096.000     0.020700000
       14098.000     0.020300000
       14100.000     0.019800000
       14102.000     0.019000000
       14104.000     0.018200000
       14106.000     0.017500000
       14108.000     0.017100000
       14110.000     0.017000000
       14112.000     0.016900000
       14114.000     0.016500000
       14116.000     0.016000000
       14118.000     0.015400000
       14120.000     0.015100000
       14122.000     0.014900000
       14124.000     0.014600000
       14126.000     0.014100000
       14128.000     0.013600000
       14130.000     0.013300000
       14132.000     0.013100000
       14134.000     0.012900000
       14136.000     0.012900000
       14138.000     0.012900000
       14140.000     0.013200000
       14142.000     0.013700000
       14144.000     0.014100000
       14146.000     0.014000000
       14148.000     0.013600000
       14150.000     0.012900000
       14152.000     0.012000000
       14154.000     0.011300000
       14156.000     0.010800000
       14158.000     0.010500000
       14160.000     0.010400000
       14162.000     0.010400000
       14164.000     0.010400000
       14166.000     0.010200000
       14168.000    0.0096000000
       14170.000    0.0088000000
       14172.000    0.0082000000
       14174.000    0.0080000000
       14176.000    0.0080000000
       14178.000    0.0080000000
       14180.000    0.0078000000
       14182.000    0.0073000000
       14184.000    0.0067000000
       14186.000    0.0062000000
       14188.000    0.0059000000
       14190.000    0.0059000000
       14192.000    0.0061000000
       14194.000    0.0065000000
       14196.000    0.0068000000
       14198.000    0.0067000000
       14201.000    0.0063000000
       14203.000    0.0058000000
       14205.000    0.0055000000
       14207.000    0.0057000000
       14209.000    0.0063000000
       14211.000    0.0069000000
       14213.000    0.0072000000
       14215.000    0.0072000000
       14217.000    0.0068000000
       14219.000    0.0063000000
       14221.000    0.0058000000
       14223.000    0.0052000000
       14225.000    0.0047000000
       14227.000    0.0044000000
       14229.000    0.0044000000
       14231.000    0.0047000000
       14233.000    0.0049000000
       14235.000    0.0049000000
       14237.000    0.0046000000
       14239.000    0.0041000000
       14241.000    0.0036000000
       14243.000    0.0031000000
       14245.000    0.0025000000
       14247.000    0.0019000000
       14249.000    0.0017000000
       14251.000    0.0018000000
       14253.000    0.0022000000
       14255.000    0.0026000000
       14257.000    0.0028000000
       14259.000    0.0028000000
       14261.000    0.0027000000
       14263.000    0.0026000000
       14265.000    0.0024000000
       14267.000    0.0023000000
       14269.000    0.0024000000
       14271.000    0.0026000000
       14273.000    0.0030000000
       14276.000    0.0033000000
       14278.000    0.0034000000
       14280.000    0.0034000000
       14282.000    0.0034000000
       14284.000    0.0034000000
       14286.000    0.0035000000
       14288.000    0.0035000000
       14290.000    0.0034000000
       14292.000    0.0031000000
       14294.000    0.0028000000
       14296.000    0.0027000000
       14298.000    0.0026000000
       14300.000    0.0026000000
       14302.000    0.0026000000
       14304.000    0.0025000000
       14306.000    0.0026000000
       14308.000    0.0029000000
       14310.000    0.0033000000
       14312.000    0.0037000000
       14314.000    0.0040000000
       14316.000    0.0040000000
       14318.000    0.0039000000
       14320.000    0.0037000000
       14323.000    0.0034000000
       14325.000    0.0032000000
       14327.000    0.0029000000
       14329.000    0.0025000000
       14331.000    0.0022000000
       14333.000    0.0020000000
       14335.000    0.0018000000
       14337.000    0.0015000000
       14339.000    0.0011000000
       14341.000   0.00060000000
       14343.000       0.0000000
       14345.000  -0.00060000000
       14347.000  -0.00080000000
       14349.000  -0.00070000000
       14351.000  -0.00030000000
       14353.000   0.00030000000
       14355.000   0.00080000000
       14358.000    0.0012000000
       14360.000    0.0015000000
       14362.000    0.0018000000
       14364.000    0.0019000000
       14366.000    0.0017000000
       14368.000    0.0013000000
       14370.000   0.00060000000
       14372.000  -0.00010000000
       14374.000  -0.00060000000
       14376.000  -0.00090000000
       14378.000   -0.0010000000
       14380.000  -0.00090000000
       14382.000  -0.00080000000
       14384.000  -0.00060000000
       14386.000  -0.00050000000
       14388.000  -0.00010000000
       14391.000   0.00040000000
       14393.000   0.00090000000
       14395.000    0.0013000000
       14397.000    0.0015000000
       14399.000    0.0014000000
       14401.000    0.0012000000
       14403.000   0.00090000000
       14405.000   0.00070000000
       14407.000   0.00060000000
       14409.000   0.00060000000
       14411.000   0.00080000000
       14413.000    0.0012000000
       14415.000    0.0016000000
       14418.000    0.0019000000
       14420.000    0.0020000000
       14422.000    0.0017000000
       14424.000    0.0015000000
       14426.000    0.0014000000
       14428.000    0.0014000000
       14430.000    0.0015000000
       14432.000    0.0016000000
       14434.000    0.0014000000
       14436.000    0.0012000000
       14438.000    0.0012000000
       14440.000    0.0013000000
       14443.000    0.0015000000
       14445.000    0.0018000000
       14447.000    0.0019000000
       14449.000    0.0016000000
       14451.000    0.0012000000
       14453.000   0.00070000000
       14455.000   0.00030000000
       14457.000       0.0000000
       14459.000  -0.00020000000
       14461.000  -0.00040000000
       14463.000  -0.00050000000
       14465.000  -0.00040000000
       14468.000  -0.00010000000
       14470.000   0.00020000000
       14472.000   0.00060000000
       14474.000   0.00090000000
       14476.000   0.00090000000
       14478.000   0.00090000000
       14480.000    0.0010000000
       14482.000    0.0012000000
       14484.000    0.0015000000
       14486.000    0.0016000000
       14489.000    0.0016000000
       14491.000    0.0014000000
       14493.000    0.0011000000
       14495.000   0.00080000000
       14497.000   0.00050000000
       14499.000   0.00010000000
       14501.000       0.0000000
       14503.000   0.00010000000
       14505.000   0.00020000000
       14507.000   0.00010000000
       14510.000  -0.00040000000
       14512.000   -0.0010000000
       14514.000   -0.0013000000
       14516.000  -0.00090000000
       14518.000   0.00010000000
       14520.000    0.0010000000
       14522.000    0.0012000000
       14524.000   0.00060000000
       14526.000  -0.00030000000
       14529.000  -0.00090000000
       14531.000  -0.00080000000
       14533.000  -0.00010000000
       14535.000   0.00050000000
       14537.000    0.0011000000
       14539.000    0.0013000000
       14541.000    0.0015000000
       14543.000    0.0017000000
       14545.000    0.0019000000
       14548.000    0.0019000000
       14550.000    0.0018000000
       14552.000    0.0016000000
       14554.000    0.0012000000
       14556.000   0.00070000000
       14558.000   0.00020000000
       14560.000  -0.00020000000
       14562.000  -0.00040000000
       14565.000  -0.00040000000
       14567.000  -0.00020000000
       14569.000  -0.00010000000
       14571.000  -0.00030000000
       14573.000  -0.00060000000
       14575.000  -0.00090000000
       14577.000   -0.0010000000
       14579.000  -0.00080000000
       14582.000  -0.00050000000
       14584.000       0.0000000
       14586.000   0.00050000000
       14588.000    0.0011000000
       14590.000    0.0016000000
       14592.000    0.0016000000
       14594.000    0.0013000000
       14596.000   0.00070000000
       14599.000   0.00010000000
       14601.000  -0.00050000000
       14603.000  -0.00080000000
       14605.000  -0.00090000000
       14607.000  -0.00080000000
       14609.000  -0.00060000000
       14611.000  -0.00050000000
       14613.000  -0.00060000000
       14616.000   -0.0011000000
       14618.000   -0.0016000000
       14620.000   -0.0018000000
       14622.000   -0.0016000000
       14624.000   -0.0012000000
       14626.000  -0.00060000000
       14628.000  -0.00010000000
       14631.000   0.00010000000
       14633.000   0.00020000000
       14635.000   0.00030000000
       14637.000   0.00020000000
       14639.000   0.00030000000
       14641.000   0.00040000000
       14643.000   0.00080000000
       14646.000    0.0013000000
       14648.000    0.0016000000
       14650.000    0.0016000000
       14652.000    0.0012000000
       14654.000   0.00050000000
       14656.000  -0.00010000000
       14658.000  -0.00060000000
       14661.000   -0.0010000000
       14663.000   -0.0013000000
       14665.000   -0.0014000000
       14667.000   -0.0012000000
       14669.000  -0.00080000000
       14671.000  -0.00030000000
       14674.000   0.00010000000
       14676.000   0.00030000000
       14678.000   0.00040000000
       14680.000   0.00050000000
       14682.000   0.00070000000
       14684.000   0.00090000000
       14686.000    0.0010000000
       14689.000   0.00090000000
       14691.000   0.00080000000
       14693.000   0.00050000000
       14695.000       0.0000000
       14697.000  -0.00060000000
       14699.000   -0.0013000000
       14702.000   -0.0017000000
       14704.000   -0.0018000000
       14706.000   -0.0018000000
       14708.000   -0.0019000000
       14710.000   -0.0021000000
       14712.000   -0.0022000000
       14715.000   -0.0020000000
       14717.000   -0.0013000000
       14719.000  -0.00060000000
       14721.000       0.0000000
       14723.000   0.00020000000
       14725.000       0.0000000
       14728.000  -0.00020000000
       14730.000  -0.00040000000
       14732.000  -0.00050000000
       14734.000  -0.00060000000
       14736.000  -0.00090000000
       14738.000   -0.0010000000
       14741.000   -0.0011000000
       14743.000   -0.0011000000
       14745.000   -0.0010000000
       14747.000  -0.00090000000
       14749.000  -0.00080000000
       14751.000  -0.00080000000
       14754.000  -0.00060000000
       14756.000  -0.00050000000
       14758.000  -0.00040000000
       14760.000  -0.00040000000
       14762.000  -0.00030000000
       14765.000  -0.00030000000
       14767.000  -0.00040000000
       14769.000  -0.00050000000
       14771.000  -0.00040000000
       14773.000  -0.00010000000
       14775.000   0.00010000000
       14778.000   0.00040000000
       14780.000   0.00030000000
       14782.000   0.00010000000
       14784.000  -0.00020000000
       14786.000  -0.00040000000
       14789.000  -0.00040000000
       14791.000  -0.00030000000
       14793.000  -0.00010000000
       14795.000       0.0000000
       14797.000  -0.00010000000
       14799.000  -0.00010000000
       14802.000   0.00010000000
       14804.000   0.00040000000
       14806.000   0.00080000000
       14808.000    0.0012000000
       14810.000    0.0014000000
       14813.000    0.0013000000
       14815.000   0.00090000000
       14817.000   0.00040000000
       14819.000       0.0000000
       14821.000  -0.00010000000
       14824.000       0.0000000
       14826.000   0.00010000000
       14828.000   0.00020000000
       14830.000   0.00030000000
       14832.000   0.00030000000
       14835.000   0.00050000000
       14837.000   0.00050000000
       14839.000   0.00040000000
       14841.000   0.00020000000
       14843.000       0.0000000
       14846.000  -0.00040000000
       14848.000  -0.00060000000
       14850.000  -0.00090000000
       14852.000   -0.0011000000
       14854.000   -0.0010000000
       14857.000  -0.00070000000
       14859.000  -0.00030000000
       14861.000       0.0000000
       14863.000   0.00010000000
       14865.000  -0.00010000000
       14868.000  -0.00050000000
       14870.000   -0.0010000000
       14872.000   -0.0013000000
       14874.000   -0.0013000000
       14877.000   -0.0011000000
       14879.000  -0.00060000000
       14881.000  -0.00020000000
       14883.000   0.00020000000
       14885.000   0.00030000000
       14888.000   0.00010000000
       14890.000  -0.00030000000
       14892.000  -0.00050000000
       14894.000  -0.00040000000
       14896.000   0.00010000000
       14899.000   0.00050000000
       14901.000   0.00060000000
       14903.000   0.00030000000
       14905.000  -0.00030000000
       14908.000  -0.00090000000
       14910.000   -0.0014000000
       14912.000   -0.0015000000
       14914.000   -0.0014000000
       14916.000   -0.0011000000
       14919.000   -0.0010000000
       14921.000   -0.0010000000
       14923.000   -0.0010000000
       14925.000   -0.0010000000
       14928.000  -0.00090000000
       14930.000  -0.00060000000
       14932.000  -0.00030000000
       14934.000  -0.00020000000
       14937.000  -0.00030000000
       14939.000  -0.00050000000
       14941.000  -0.00060000000
       14943.000  -0.00060000000
       14945.000  -0.00050000000
       14948.000  -0.00060000000
       14950.000  -0.00080000000
       14952.000  -0.00090000000
       14954.000  -0.00080000000
       14957.000  -0.00050000000
       14959.000       0.0000000
       14961.000   0.00040000000
       14963.000   0.00050000000
       14966.000   0.00050000000
       14968.000   0.00030000000
       14970.000   0.00010000000
       14972.000  -0.00010000000
       14975.000  -0.00020000000
       14977.000  -0.00020000000
       14979.000       0.0000000
       14981.000   0.00030000000
       14984.000   0.00050000000
       14986.000   0.00040000000
       14988.000  -0.00010000000
       14990.000  -0.00060000000
       14993.000  -0.00090000000
       14995.000  -0.00090000000
       14997.000  -0.00060000000
       14999.000  -0.00030000000
       15002.000  -0.00020000000
       15004.000  -0.00020000000
       15006.000  -0.00020000000
       15008.000       0.0000000
       15011.000   0.00030000000
       15013.000   0.00060000000
       15015.000   0.00080000000
       15017.000   0.00070000000
       15020.000   0.00050000000
       15022.000   0.00030000000
       15024.000   0.00010000000
       15026.000  -0.00020000000
       15029.000  -0.00050000000
       15031.000  -0.00080000000
       15033.000   -0.0010000000
       15035.000  -0.00080000000
       15038.000  -0.00040000000
       15040.000   0.00010000000
       15042.000   0.00060000000
       15044.000   0.00090000000
       15047.000   0.00090000000
       15049.000   0.00080000000
       15051.000   0.00060000000
       15053.000   0.00040000000
       15056.000   0.00010000000
       15058.000  -0.00010000000
       15060.000  -0.00050000000
       15063.000   -0.0011000000
       15065.000   -0.0016000000
       15067.000   -0.0019000000
       15069.000   -0.0017000000
       15072.000   -0.0011000000
       15074.000  -0.00040000000
       15076.000   0.00040000000
       15078.000    0.0010000000
       15081.000    0.0012000000
       15083.000    0.0011000000
       15085.000   0.00080000000
       15088.000   0.00040000000
       15090.000   0.00010000000
       15092.000       0.0000000
       15094.000  -0.00010000000
       15097.000       0.0000000
       15099.000       0.0000000
       15101.000       0.0000000
       15103.000       0.0000000
       15106.000       0.0000000
       15108.000   0.00020000000
       15110.000   0.00040000000
       15113.000   0.00050000000
       15115.000   0.00030000000
       15117.000  -0.00010000000
       15119.000  -0.00060000000
       15122.000  -0.00090000000
       15124.000  -0.00090000000
       15126.000  -0.00070000000
       15129.000  -0.00050000000
       15131.000  -0.00020000000
       15133.000  -0.00010000000
       15135.000   0.00010000000
       15138.000   0.00040000000
       15140.000   0.00060000000
       15142.000   0.00070000000
       15145.000   0.00070000000
       15147.000   0.00060000000
       15149.000   0.00050000000
       15152.000   0.00060000000
       15154.000   0.00080000000
       15156.000   0.00090000000
       15158.000   0.00080000000
       15161.000   0.00050000000
       15163.000   0.00010000000
       15165.000  -0.00030000000
       15168.000  -0.00050000000
       15170.000  -0.00050000000
       15172.000  -0.00030000000
       15175.000   0.00010000000
       15177.000   0.00040000000
       15179.000   0.00070000000
       15181.000   0.00080000000
       15184.000   0.00070000000
       15186.000   0.00040000000
       15188.000   0.00020000000
       15191.000       0.0000000
       15193.000       0.0000000
       15195.000   0.00020000000
       15198.000   0.00030000000
       15200.000   0.00030000000
       15202.000   0.00020000000
       15205.000   0.00010000000
       15207.000   0.00010000000
       15209.000   0.00010000000
       15211.000   0.00020000000
       15214.000   0.00010000000
       15216.000  -0.00010000000
       15218.000  -0.00050000000
       15221.000  -0.00070000000
       15223.000  -0.00070000000
       15225.000  -0.00050000000
       15228.000  -0.00030000000
       15230.000  -0.00030000000
       15232.000  -0.00040000000
       15235.000  -0.00040000000
       15237.000  -0.00020000000
       15239.000       0.0000000
       15242.000   0.00010000000
       15244.000   0.00010000000
       15246.000       0.0000000
       15249.000  -0.00020000000
       15251.000  -0.00030000000
       15253.000  -0.00020000000
       15256.000  -0.00010000000
       15258.000  -0.00020000000
       15260.000  -0.00020000000
       15263.000  -0.00010000000
       15265.000   0.00010000000
       15267.000   0.00050000000
       15270.000   0.00080000000
       15272.000   0.00090000000
       15274.000   0.00070000000
       15277.000   0.00040000000
       15279.000       0.0000000
       15281.000  -0.00020000000
       15284.000  -0.00020000000
       15286.000  -0.00010000000
       15288.000  -0.00010000000
       15291.000  -0.00010000000
       15293.000  -0.00010000000
       15295.000  -0.00020000000
       15298.000       0.0000000
       15300.000   0.00030000000
       15302.000   0.00070000000
       15305.000    0.0011000000
       15307.000    0.0014000000
       15309.000    0.0015000000
       15312.000    0.0015000000
       15314.000    0.0014000000
       15316.000    0.0013000000
       15319.000    0.0010000000
       15321.000   0.00070000000
       15323.000   0.00030000000
       15326.000       0.0000000
       15328.000  -0.00010000000
       15330.000  -0.00020000000
       15333.000       0.0000000
       15335.000   0.00010000000
       15337.000   0.00010000000
       15340.000       0.0000000
       15342.000  -0.00010000000
       15344.000  -0.00020000000
       15347.000  -0.00020000000
       15349.000       0.0000000
       15352.000       0.0000000
       15354.000       0.0000000
       15356.000  -0.00020000000
       15359.000  -0.00040000000
       15361.000  -0.00050000000
       15363.000  -0.00050000000
       15366.000  -0.00040000000
       15368.000  -0.00030000000
       15370.000  -0.00040000000
       15373.000  -0.00040000000
       15375.000  -0.00030000000
       15378.000  -0.00020000000
       15380.000  -0.00010000000
       15382.000       0.0000000
       15385.000       0.0000000
       15387.000       0.0000000
       15389.000   0.00010000000
       15392.000   0.00010000000
       15394.000   0.00030000000
       15396.000   0.00050000000
       15399.000   0.00070000000
       15401.000   0.00090000000
       15404.000    0.0011000000
       15406.000    0.0010000000
       15408.000   0.00080000000
       15411.000   0.00060000000
       15413.000   0.00040000000
       15415.000   0.00040000000
       15418.000   0.00030000000
       15420.000   0.00010000000
       15423.000  -0.00020000000
       15425.000  -0.00050000000
       15427.000  -0.00050000000
       15430.000  -0.00020000000
       15432.000   0.00020000000
       15434.000   0.00040000000
       15437.000   0.00040000000
       15439.000   0.00010000000
       15442.000  -0.00020000000
       15444.000  -0.00050000000
       15446.000  -0.00060000000
       15449.000  -0.00050000000
       15451.000  -0.00050000000
       15454.000  -0.00030000000
       15456.000  -0.00020000000
       15458.000  -0.00010000000
       15461.000       0.0000000
       15463.000  -0.00010000000
       15466.000  -0.00010000000
       15468.000       0.0000000
       15470.000       0.0000000
       15473.000   0.00010000000
       15475.000       0.0000000
       15477.000  -0.00040000000
       15480.000  -0.00080000000
       15482.000   -0.0012000000
       15485.000   -0.0013000000
       15487.000   -0.0010000000
       15489.000  -0.00040000000
       15492.000   0.00010000000
       15494.000   0.00050000000
       15497.000   0.00080000000
       15499.000   0.00080000000
       15501.000   0.00080000000
       15504.000   0.00050000000
       15506.000   0.00020000000
       15509.000  -0.00020000000
       15511.000  -0.00050000000
       15513.000  -0.00050000000
       15516.000  -0.00030000000
       15518.000       0.0000000
       15521.000   0.00020000000
       15523.000   0.00030000000
       15526.000   0.00020000000
       15528.000       0.0000000
       15530.000  -0.00010000000
       15533.000  -0.00010000000
       15535.000  -0.00010000000
       15538.000  -0.00010000000
       15540.000       0.0000000
       15542.000       0.0000000
       15545.000   0.00010000000
       15547.000   0.00010000000
       15550.000   0.00010000000
       15552.000       0.0000000
       15555.000       0.0000000
       15557.000       0.0000000
       15559.000   0.00020000000
       15562.000   0.00040000000
       15564.000   0.00060000000
       15567.000   0.00080000000
       15569.000    0.0010000000
       15571.000    0.0010000000
       15574.000   0.00080000000
       15576.000   0.00040000000
       15579.000   0.00010000000
       15581.000  -0.00010000000
       15584.000       0.0000000
       15586.000   0.00020000000
       15588.000   0.00030000000
       15591.000   0.00020000000
       15593.000  -0.00020000000
       15596.000  -0.00050000000
       15598.000  -0.00060000000
       15601.000  -0.00040000000
       15603.000  -0.00010000000
       15605.000   0.00020000000
       15608.000   0.00020000000
       15610.000       0.0000000
       15613.000  -0.00040000000
       15615.000  -0.00050000000
       15618.000  -0.00050000000
       15620.000  -0.00010000000
       15623.000   0.00040000000
       15625.000   0.00080000000
       15627.000    0.0010000000
       15630.000   0.00090000000
       15632.000   0.00070000000
       15635.000   0.00060000000
       15637.000   0.00060000000
       15640.000   0.00060000000
       15642.000   0.00070000000
       15645.000   0.00060000000
       15647.000   0.00040000000
       15649.000   0.00020000000
       15652.000  -0.00010000000
       15654.000  -0.00040000000
       15657.000  -0.00030000000
       15659.000       0.0000000
       15662.000   0.00060000000
       15664.000    0.0010000000
       15667.000    0.0012000000
       15669.000   0.00090000000
       15672.000   0.00040000000
       15674.000  -0.00020000000
       15676.000  -0.00060000000
       15679.000  -0.00080000000
       15681.000  -0.00090000000
       15684.000  -0.00090000000
       15686.000  -0.00090000000
       15689.000   -0.0010000000
       15691.000   -0.0010000000
       15694.000   -0.0010000000
       15696.000  -0.00070000000
       15699.000  -0.00030000000
       15701.000   0.00010000000
       15704.000   0.00060000000
       15706.000   0.00090000000
       15708.000    0.0010000000
       15711.000   0.00090000000
       15713.000   0.00070000000
       15716.000   0.00050000000
       15718.000   0.00020000000
       15721.000       0.0000000
       15723.000  -0.00020000000
       15726.000  -0.00030000000
       15728.000  -0.00020000000
       15731.000   0.00010000000
       15733.000   0.00050000000
       15736.000   0.00080000000
       15738.000   0.00090000000
       15741.000   0.00090000000
       15743.000   0.00080000000
       15746.000   0.00070000000
       15748.000   0.00060000000
       15751.000   0.00060000000
       15753.000   0.00060000000
       15755.000   0.00050000000
       15758.000   0.00050000000
       15760.000   0.00050000000
       15763.000   0.00050000000
       15765.000   0.00050000000
       15768.000   0.00040000000
       15770.000   0.00030000000
       15773.000       0.0000000
       15775.000  -0.00020000000
       15778.000  -0.00040000000
       15780.000  -0.00040000000
       15783.000  -0.00030000000
       15785.000  -0.00010000000
       15788.000   0.00020000000
       15790.000   0.00050000000
       15793.000   0.00080000000
       15795.000    0.0010000000
       15798.000    0.0011000000
       15800.000    0.0011000000
       15803.000    0.0011000000
       15805.000    0.0011000000
       15808.000    0.0011000000
       15810.000    0.0010000000
       15813.000   0.00080000000
       15815.000   0.00030000000
       15818.000  -0.00020000000
       15820.000  -0.00060000000
       15823.000  -0.00070000000
       15825.000  -0.00050000000
       15828.000  -0.00030000000
       15830.000  -0.00010000000
       15833.000       0.0000000
       15835.000   0.00020000000
       15838.000   0.00020000000
       15840.000   0.00010000000
       15843.000       0.0000000
       15845.000  -0.00020000000
       15848.000  -0.00030000000
       15850.000  -0.00010000000
       15853.000   0.00010000000
       15855.000   0.00050000000
       15858.000   0.00060000000
       15860.000   0.00060000000
       15863.000   0.00060000000
       15865.000   0.00060000000
       15868.000   0.00080000000
       15870.000    0.0010000000
       15873.000    0.0011000000
       15876.000    0.0011000000
       15878.000   0.00080000000
       15881.000   0.00040000000
       15883.000       0.0000000
       15886.000  -0.00010000000
       15888.000       0.0000000
       15891.000   0.00020000000
       15893.000   0.00040000000
       15896.000   0.00050000000
       15898.000   0.00030000000
       15901.000       0.0000000
       15903.000  -0.00040000000
       15906.000  -0.00060000000
       15908.000  -0.00070000000
       15911.000  -0.00080000000
       15913.000  -0.00070000000
       15916.000  -0.00050000000
       15918.000  -0.00020000000
       15921.000       0.0000000
       15924.000       0.0000000
       15926.000       0.0000000
       15929.000  -0.00010000000
       15931.000  -0.00010000000
       15934.000  -0.00010000000
       15936.000   0.00010000000
       15939.000   0.00030000000
       15941.000   0.00050000000
       15944.000   0.00070000000
       15946.000   0.00080000000
       15949.000   0.00090000000
       15952.000   0.00080000000
       15954.000   0.00060000000
       15957.000   0.00040000000
       15959.000   0.00040000000
       15962.000   0.00050000000
       15964.000   0.00070000000
       15967.000   0.00070000000
       15969.000   0.00060000000
       15972.000   0.00050000000
       15974.000   0.00030000000
       15977.000   0.00010000000
       15980.000       0.0000000
       15982.000       0.0000000
       15985.000  -0.00010000000
       15987.000  -0.00010000000
       15990.000  -0.00020000000
       15992.000  -0.00020000000
       15995.000  -0.00010000000
       15997.000  -0.00010000000
       16000.000       0.0000000
       16003.000       0.0000000
       16005.000  -0.00010000000
       16008.000  -0.00020000000
       16010.000  -0.00020000000
       16013.000  -0.00020000000
       16015.000       0.0000000
       16018.000   0.00020000000
       16021.000   0.00030000000
       16023.000   0.00040000000
       16026.000   0.00040000000
       16028.000   0.00030000000
       16031.000   0.00020000000
       16033.000   0.00020000000
       16036.000   0.00010000000
       16038.000   0.00010000000
       16041.000   0.00010000000
       16044.000   0.00010000000
       16046.000   0.00020000000
       16049.000   0.00020000000
       16051.000   0.00030000000
       16054.000   0.00030000000
       16057.000   0.00020000000
       16059.000       0.0000000
       16062.000  -0.00030000000
       16064.000  -0.00050000000
       16067.000  -0.00060000000
       16069.000  -0.00050000000
       16072.000  -0.00010000000
       16075.000   0.00030000000
       16077.000   0.00060000000
       16080.000   0.00070000000
       16082.000   0.00060000000
       16085.000   0.00050000000
       16088.000   0.00050000000
       16090.000   0.00040000000
       16093.000   0.00020000000
       16095.000   0.00010000000
       16098.000       0.0000000
       16100.000   0.00010000000
       16103.000   0.00020000000
       16106.000   0.00020000000
       16108.000   0.00010000000
       16111.000       0.0000000
       16113.000       0.0000000
       16116.000       0.0000000
       16119.000       0.0000000
       16121.000       0.0000000
       16124.000       0.0000000
       16126.000       0.0000000
       16129.000   0.00010000000
       16132.000   0.00020000000
       16134.000   0.00040000000
       16137.000   0.00040000000
       16139.000   0.00040000000
       16142.000   0.00040000000
       16145.000   0.00040000000
       16147.000   0.00020000000
       16150.000       0.0000000
       16152.000  -0.00020000000
       16155.000  -0.00030000000
       16158.000  -0.00020000000
       16160.000       0.0000000
       16163.000       0.0000000
       16166.000  -0.00010000000
       16168.000  -0.00040000000
       16171.000  -0.00070000000
       16173.000  -0.00090000000
       16176.000  -0.00080000000
       16179.000  -0.00060000000
       16181.000  -0.00050000000
       16184.000  -0.00030000000
       16186.000       0.0000000
       16189.000   0.00010000000
       16192.000   0.00020000000
       16194.000   0.00010000000
       16197.000       0.0000000
       16200.000       0.0000000
       16202.000   0.00020000000
       16205.000   0.00040000000
       16207.000   0.00040000000
       16210.000   0.00030000000
       16213.000   0.00010000000
       16215.000  -0.00020000000
       16218.000  -0.00040000000
       16221.000  -0.00050000000
       16223.000  -0.00050000000
       16226.000  -0.00050000000
       16228.000  -0.00060000000
       16231.000  -0.00060000000
       16234.000  -0.00050000000
       16236.000  -0.00050000000
       16239.000  -0.00040000000
       16242.000  -0.00040000000
       16244.000  -0.00030000000
       16247.000  -0.00020000000
       16250.000  -0.00010000000
       16252.000  -0.00020000000
       16255.000  -0.00050000000
       16258.000   -0.0010000000
       16260.000   -0.0012000000
       16263.000   -0.0013000000
       16265.000   -0.0011000000
       16268.000  -0.00080000000
       16271.000  -0.00050000000
       16273.000  -0.00020000000
       16276.000   0.00020000000
       16279.000   0.00050000000
       16281.000   0.00080000000
       16284.000   0.00090000000
       16287.000   0.00070000000
       16289.000   0.00050000000
       16292.000   0.00020000000
       16295.000  -0.00010000000
       16297.000  -0.00040000000
       16300.000  -0.00080000000
       16303.000   -0.0011000000
       16305.000   -0.0011000000
       16308.000  -0.00080000000
       16311.000  -0.00040000000
       16313.000  -0.00010000000
       16316.000       0.0000000
       16319.000  -0.00020000000
       16321.000  -0.00020000000
       16324.000  -0.00010000000
       16327.000   0.00030000000
       16329.000   0.00060000000
       16332.000   0.00070000000
       16335.000   0.00060000000
       16337.000   0.00040000000
       16340.000   0.00010000000
       16343.000       0.0000000
       16345.000       0.0000000
       16348.000       0.0000000
       16351.000       0.0000000
       16353.000   0.00010000000
       16356.000   0.00030000000
       16359.000   0.00040000000
       16361.000   0.00040000000
       16364.000   0.00030000000
       16367.000   0.00020000000
       16369.000   0.00010000000
       16372.000   0.00020000000
       16375.000   0.00030000000
       16377.000   0.00040000000
       16380.000   0.00030000000
       16383.000       0.0000000
       16385.000  -0.00040000000
       16388.000  -0.00070000000
       16391.000  -0.00090000000
       16393.000  -0.00090000000
       16396.000  -0.00080000000
       16399.000  -0.00060000000
       16402.000  -0.00050000000
       16404.000  -0.00030000000
       16407.000  -0.00020000000
       16410.000  -0.00020000000
       16412.000  -0.00020000000
       16415.000  -0.00020000000
       16418.000  -0.00020000000
       16420.000       0.0000000
       16423.000   0.00010000000
       16426.000   0.00020000000
       16428.000   0.00010000000
       16431.000       0.0000000
       16434.000  -0.00030000000
       16437.000  -0.00050000000
       16439.000  -0.00050000000
       16442.000  -0.00030000000
       16445.000  -0.00010000000
       16447.000   0.00010000000
       16450.000   0.00010000000
       16453.000       0.0000000
       16455.000  -0.00020000000
       16458.000  -0.00030000000
       16461.000  -0.00030000000
       16464.000  -0.00020000000
       16466.000       0.0000000
       16469.000   0.00010000000
       16472.000   0.00020000000
       16474.000   0.00030000000
       16477.000   0.00030000000
       16480.000   0.00010000000
       16483.000  -0.00010000000
       16485.000  -0.00050000000
       16488.000  -0.00080000000
       16491.000   -0.0010000000
       16493.000   -0.0010000000
       16496.000  -0.00090000000
       16499.000  -0.00080000000
       16502.000  -0.00060000000
       16504.000  -0.00030000000
       16507.000  -0.00010000000
       16510.000   0.00020000000
       16513.000   0.00030000000
       16515.000   0.00020000000
       16518.000       0.0000000
       16521.000  -0.00010000000
       16523.000       0.0000000
       16526.000   0.00020000000
       16529.000   0.00060000000
       16532.000    0.0010000000
       16534.000    0.0011000000
       16537.000    0.0010000000
       16540.000   0.00080000000
       16543.000   0.00040000000
       16545.000       0.0000000
       16548.000  -0.00040000000
       16551.000  -0.00060000000
       16554.000  -0.00050000000
       16556.000  -0.00030000000
       16559.000  -0.00010000000
       16562.000  -0.00020000000
       16565.000  -0.00050000000
       16567.000  -0.00080000000
       16570.000  -0.00090000000
       16573.000  -0.00060000000
       16576.000  -0.00020000000
       16578.000   0.00010000000
       16581.000   0.00020000000
       16584.000   0.00010000000
       16586.000  -0.00020000000
       16589.000  -0.00050000000
       16592.000  -0.00090000000
       16595.000   -0.0012000000
       16598.000   -0.0014000000
       16600.000   -0.0013000000
       16603.000   -0.0010000000
       16606.000  -0.00050000000
       16609.000  -0.00020000000
       16611.000       0.0000000
       16614.000   0.00010000000
       16617.000   0.00020000000
       16620.000   0.00040000000
       16622.000   0.00050000000
       16625.000   0.00050000000
       16628.000   0.00030000000
       16631.000       0.0000000
       16633.000  -0.00030000000
       16636.000  -0.00040000000
       16639.000  -0.00030000000
       16642.000  -0.00020000000
       16644.000       0.0000000
       16647.000   0.00010000000
       16650.000   0.00040000000
       16653.000   0.00070000000
       16656.000   0.00090000000
       16658.000   0.00090000000
       16661.000   0.00060000000
       16664.000   0.00030000000
       16667.000  -0.00010000000
       16669.000  -0.00050000000
       16672.000  -0.00080000000
       16675.000  -0.00090000000
       16678.000  -0.00070000000
       16681.000  -0.00040000000
       16683.000       0.0000000
       16686.000   0.00020000000
       16689.000   0.00010000000
       16692.000       0.0000000
       16694.000  -0.00020000000
       16697.000  -0.00030000000
       16700.000  -0.00030000000
       16703.000  -0.00020000000
       16706.000       0.0000000
       16708.000   0.00010000000
       16711.000   0.00010000000
       16714.000   0.00010000000
       16717.000       0.0000000
       16720.000  -0.00010000000
       16722.000  -0.00020000000
       16725.000  -0.00020000000
       16728.000  -0.00030000000
       16731.000  -0.00030000000
       16734.000  -0.00040000000
       16736.000  -0.00040000000
       16739.000  -0.00040000000
       16742.000  -0.00030000000
       16745.000  -0.00040000000
       16748.000  -0.00050000000
       16750.000  -0.00070000000
       16753.000   -0.0010000000
       16756.000   -0.0010000000
       16759.000   -0.0010000000
       16762.000  -0.00090000000
       16764.000  -0.00080000000
       16767.000  -0.00080000000
       16770.000  -0.00070000000
       16773.000  -0.00060000000
       16776.000  -0.00050000000
       16779.000  -0.00040000000
       16781.000  -0.00020000000
       16784.000       0.0000000
       16787.000   0.00030000000
       16790.000   0.00060000000
       16793.000   0.00090000000
       16795.000   0.00090000000
       16798.000   0.00080000000
       16801.000   0.00060000000
       16804.000   0.00050000000
       16807.000   0.00030000000
       16810.000   0.00010000000
       16812.000  -0.00010000000
       16815.000  -0.00010000000
       16818.000       0.0000000
       16821.000   0.00010000000
       16824.000       0.0000000
       16827.000  -0.00030000000
       16829.000  -0.00060000000
       16832.000  -0.00090000000
       16835.000  -0.00090000000
       16838.000  -0.00080000000
       16841.000  -0.00060000000
       16844.000  -0.00050000000
       16846.000  -0.00030000000
       16849.000       0.0000000
       16852.000   0.00020000000
       16855.000   0.00040000000
       16858.000   0.00040000000
       16861.000   0.00010000000
       16863.000  -0.00020000000
       16866.000  -0.00040000000
       16869.000  -0.00050000000
       16872.000  -0.00040000000
       16875.000  -0.00030000000
       16878.000  -0.00010000000
       16880.000   0.00030000000
       16883.000   0.00060000000
       16886.000   0.00080000000
       16889.000   0.00080000000
       16892.000   0.00050000000
       16895.000   0.00010000000
       16898.000  -0.00030000000
       16900.000  -0.00050000000
       16903.000  -0.00060000000
       16906.000  -0.00060000000
       16909.000  -0.00040000000
       16912.000  -0.00010000000
       16915.000   0.00020000000
       16918.000   0.00040000000
       16920.000   0.00020000000
       16923.000  -0.00010000000
       16926.000  -0.00040000000
       16929.000  -0.00060000000
       16932.000  -0.00060000000
       16935.000  -0.00040000000
       16938.000  -0.00010000000
       16941.000   0.00020000000
       16943.000   0.00050000000
       16946.000   0.00050000000
       16949.000   0.00040000000
       16952.000       0.0000000
       16955.000  -0.00040000000
       16958.000  -0.00060000000
       16961.000  -0.00060000000
       16964.000  -0.00050000000
       16966.000  -0.00040000000
       16969.000  -0.00030000000
       16972.000  -0.00030000000
       16975.000  -0.00030000000
       16978.000  -0.00030000000
       16981.000  -0.00020000000
       16984.000       0.0000000
       16987.000   0.00030000000
       16989.000   0.00070000000
       16992.000    0.0010000000
       16995.000    0.0012000000
       16998.000    0.0012000000
       17001.000   0.00090000000
       17004.000   0.00050000000
       17007.000   0.00020000000
       17010.000   0.00020000000
       17013.000   0.00020000000
       17015.000   0.00030000000
       17018.000   0.00020000000
       17021.000  -0.00010000000
       17024.000  -0.00030000000
       17027.000  -0.00050000000
       17030.000  -0.00050000000
       17033.000  -0.00040000000
       17036.000  -0.00010000000
       17039.000   0.00010000000
       17042.000   0.00020000000
       17044.000   0.00030000000
       17047.000   0.00020000000
       17050.000   0.00020000000
       17053.000   0.00010000000
       17056.000   0.00010000000
       17059.000   0.00020000000
       17062.000   0.00030000000
       17065.000   0.00050000000
       17068.000   0.00070000000
       17071.000   0.00090000000
       17074.000   0.00090000000
       17077.000   0.00060000000
       17079.000   0.00030000000
       17082.000       0.0000000
       17085.000       0.0000000
       17088.000   0.00030000000
       17091.000   0.00060000000
       17094.000   0.00090000000
       17097.000    0.0010000000
       17100.000   0.00080000000
       17103.000   0.00060000000
       17106.000   0.00050000000
       17109.000   0.00040000000
       17112.000   0.00030000000
       17114.000       0.0000000
       17117.000  -0.00020000000
       17120.000  -0.00050000000
       17123.000  -0.00080000000
       17126.000   -0.0011000000
       17129.000   -0.0013000000
       17132.000   -0.0014000000
       17135.000   -0.0012000000
       17138.000  -0.00080000000
       17141.000  -0.00020000000
       17144.000   0.00040000000
       17147.000   0.00070000000
       17150.000   0.00090000000
       17153.000   0.00080000000
       17156.000   0.00070000000
       17159.000   0.00070000000
       17161.000   0.00070000000
       17164.000   0.00080000000
       17167.000   0.00090000000
       17170.000   0.00070000000
       17173.000   0.00040000000
       17176.000       0.0000000
       17179.000  -0.00030000000
       17182.000  -0.00040000000
       17185.000  -0.00040000000
       17188.000  -0.00020000000
       17191.000   0.00010000000
       17194.000   0.00030000000
       17197.000   0.00040000000
       17200.000   0.00050000000
       17203.000   0.00060000000
       17206.000   0.00060000000
       17209.000   0.00070000000
       17212.000   0.00080000000
       17215.000    0.0010000000
       17218.000    0.0010000000
       17221.000   0.00090000000
       17224.000   0.00060000000
       17227.000   0.00020000000
       17229.000       0.0000000
       17232.000  -0.00010000000
       17235.000       0.0000000
       17238.000   0.00010000000
       17241.000       0.0000000
       17244.000  -0.00010000000
       17247.000  -0.00020000000
       17250.000  -0.00020000000
       17253.000  -0.00010000000
       17256.000   0.00010000000
       17259.000   0.00030000000
       17262.000   0.00050000000
       17265.000   0.00070000000
       17268.000   0.00090000000
       17271.000    0.0010000000
       17274.000   0.00080000000
       17277.000   0.00050000000
       17280.000   0.00020000000
       17283.000   0.00010000000
       17286.000   0.00030000000
       17289.000   0.00070000000
       17292.000    0.0010000000
       17295.000    0.0010000000
       17298.000   0.00070000000
       17301.000   0.00010000000
       17304.000  -0.00040000000
       17307.000  -0.00080000000
       17310.000   -0.0010000000
       17313.000  -0.00080000000
       17316.000  -0.00030000000
       17319.000   0.00020000000
       17322.000   0.00060000000
       17325.000   0.00060000000
       17328.000   0.00030000000
       17331.000  -0.00010000000
       17334.000  -0.00040000000
       17337.000  -0.00050000000
       17340.000  -0.00030000000
       17343.000       0.0000000
       17346.000   0.00020000000
       17349.000   0.00040000000
       17352.000   0.00050000000
       17355.000   0.00060000000
       17358.000   0.00070000000
       17361.000   0.00060000000
       17364.000   0.00050000000
       17367.000   0.00030000000
       17370.000       0.0000000
       17373.000  -0.00020000000
       17376.000  -0.00030000000
       17379.000  -0.00030000000
       17382.000  -0.00020000000
       17385.000       0.0000000
       17388.000   0.00020000000
       17391.000   0.00040000000
       17394.000   0.00040000000
       17397.000   0.00040000000
       17400.000   0.00030000000
       17403.000   0.00030000000
       17406.000   0.00020000000
       17409.000       0.0000000
       17413.000  -0.00010000000
       17416.000  -0.00020000000
       17419.000  -0.00010000000
       17422.000   0.00020000000
       17425.000   0.00060000000
       17428.000    0.0010000000
       17431.000    0.0011000000
       17434.000    0.0010000000
       17437.000   0.00060000000
       17440.000   0.00020000000
       17443.000  -0.00010000000
       17446.000  -0.00020000000
       17449.000  -0.00040000000
       17452.000  -0.00040000000
       17455.000  -0.00050000000
       17458.000  -0.00050000000
       17461.000  -0.00050000000
       17464.000  -0.00050000000
       17467.000  -0.00040000000
       17470.000  -0.00020000000
       17473.000       0.0000000
       17476.000   0.00010000000
       17479.000   0.00020000000
       17483.000   0.00020000000
       17486.000   0.00010000000
       17489.000       0.0000000
       17492.000   0.00010000000
       17495.000   0.00020000000
       17498.000   0.00040000000
       17501.000   0.00050000000
       17504.000   0.00050000000
       17507.000   0.00030000000
       17510.000   0.00030000000
       17513.000   0.00040000000
       17516.000   0.00060000000
       17519.000   0.00080000000
       17522.000   0.00080000000
       17525.000   0.00070000000
       17528.000   0.00050000000
       17532.000   0.00030000000
       17535.000   0.00010000000
       17538.000       0.0000000
       17541.000  -0.00020000000
       17544.000  -0.00020000000
       17547.000  -0.00020000000
       17550.000       0.0000000
       17553.000   0.00020000000
       17556.000   0.00050000000
       17559.000   0.00050000000
       17562.000   0.00020000000
       17565.000  -0.00030000000
       17569.000  -0.00070000000
       17572.000   -0.0010000000
       17575.000  -0.00090000000
       17578.000  -0.00050000000
       17581.000       0.0000000
       17584.000   0.00040000000
       17587.000   0.00060000000
       17590.000   0.00060000000
       17593.000   0.00050000000
       17596.000   0.00040000000
       17599.000   0.00030000000
       17603.000   0.00010000000
       17606.000  -0.00020000000
       17609.000  -0.00040000000
       17612.000  -0.00060000000
       17615.000  -0.00050000000
       17618.000  -0.00040000000
       17621.000  -0.00020000000
       17624.000  -0.00020000000
       17627.000  -0.00020000000
       17630.000  -0.00020000000
       17634.000  -0.00020000000
       17637.000       0.0000000
       17640.000   0.00010000000
       17643.000   0.00020000000
       17646.000   0.00020000000
       17649.000       0.0000000
       17652.000  -0.00030000000
       17655.000  -0.00050000000
       17658.000  -0.00060000000
       17662.000  -0.00050000000
       17665.000  -0.00010000000
       17668.000   0.00040000000
       17671.000   0.00080000000
       17674.000   0.00090000000
       17677.000   0.00090000000
       17680.000   0.00070000000
       17683.000   0.00050000000
       17687.000   0.00040000000
